
time,gfx,gFy,gFz,ax,ay,az,wx,wy,wz,Bx,By,Bz,I,Latitude,Longitude,Speed (m/s),
0.0070,0.0156,0.5082,0.8678,0.3373,0.0798,-0.0380,0.1075,0.2566,-0.0098,-28.3800,-7.9200,-36.7200,10240.0000,32.85707486,35.27914242,2.1213202476501465,
0.0080,0.0039,0.5160,0.8795,0.3373,0.0798,-0.0380,0.1075,0.2566,-0.0098,-28.3800,-7.9200,-36.7200,10240.0000,32.85707486,35.27914242,2.1213202476501465,
0.0230,0.0039,0.5160,0.8795,0.3373,0.0798,-0.0380,0.1075,0.2566,-0.0098,-28.0800,-8.3400,-36.7200,10240.0000,32.85707486,35.27914242,2.1213202476501465,
0.0240,0.0000,0.5160,0.8756,0.3373,0.0798,-0.0380,0.1075,0.2566,-0.0098,-28.0800,-8.3400,-36.7200,10240.0000,32.85707486,35.27914242,2.1213202476501465,
0.0530,0.0039,0.5199,0.8678,0.3373,0.0798,-0.0380,0.1075,0.2566,-0.0098,-28.0800,-8.3400,-36.7200,10240.0000,32.85707486,35.27914242,2.1213202476501465,
0.0660,0.0078,0.5160,0.8639,0.3373,0.0798,-0.0380,0.1075,0.2566,-0.0098,-28.0800,-8.3400,-36.7200,10240.0000,32.85707486,35.27914242,2.1213202476501465,
0.0820,0.0117,0.5160,0.8600,0.3373,0.0798,-0.0380,0.1075,0.2566,-0.0098,-28.0800,-8.3400,-36.7200,10240.0000,32.85707486,35.27914242,2.1213202476501465,
0.0830,0.0117,0.5160,0.8600,0.3373,0.0798,-0.0380,-0.3067,0.3543,-0.0024,-28.0800,-8.3400,-36.7200,10240.0000,32.85707486,35.27914242,2.1213202476501465,
0.0840,0.0117,0.5160,0.8600,0.4672,-0.0858,0.0637,-0.3067,0.3543,-0.0024,-28.0800,-8.3400,-36.7200,10240.0000,32.85707486,35.27914242,2.1213202476501465,
0.1020,0.0235,0.5082,0.8639,0.4672,-0.0858,0.0637,-0.3067,0.3543,-0.0024,-28.0800,-8.3400,-36.7200,10240.0000,32.85707486,35.27914242,2.1213202476501465,
0.1250,0.0352,0.5003,0.8678,0.4672,-0.0858,0.0637,-0.3067,0.3543,-0.0024,-28.0800,-8.3400,-36.7200,10240.0000,32.85707486,35.27914242,2.1213202476501465,
0.1510,0.0274,0.5003,0.8834,0.4672,-0.0858,0.0637,-0.3067,0.3543,-0.0024,-28.0800,-8.3400,-36.7200,10240.0000,32.85707486,35.27914242,2.1213202476501465,
0.1520,0.0274,0.5003,0.8834,0.4672,-0.0858,0.0637,-0.3067,0.3543,-0.0024,-27.4200,-8.7600,-36.6600,10240.0000,32.85707486,35.27914242,2.1213202476501465,
0.1620,0.0235,0.4964,0.9069,0.4672,-0.0858,0.0637,-0.3067,0.3543,-0.0024,-27.4200,-8.7600,-36.6600,10240.0000,32.85707486,35.27914242,2.1213202476501465,
0.1850,0.0235,0.4886,0.9225,0.4672,-0.0858,0.0637,-0.3067,0.3543,-0.0024,-27.4200,-8.7600,-36.6600,10240.0000,32.85707486,35.27914242,2.1213202476501465,
0.2020,0.0313,0.4808,0.9460,0.4672,-0.0858,0.0637,-0.3067,0.3543,-0.0024,-27.4200,-8.7600,-36.6600,10240.0000,32.85707486,35.27914242,2.1213202476501465,
0.2100,0.0313,0.4808,0.9460,0.4672,-0.0858,0.0637,-0.3067,0.3543,-0.0024,-26.5800,-9.0600,-36.0000,10240.0000,32.85707486,35.27914242,2.1213202476501465,
0.2230,0.0547,0.4573,0.9499,0.4672,-0.0858,0.0637,-0.3067,0.3543,-0.0024,-26.5800,-9.0600,-36.0000,10240.0000,32.85707486,35.27914242,2.1213202476501465,
0.2440,0.0625,0.4573,0.9420,0.4672,-0.0858,0.0637,-0.3067,0.3543,-0.0024,-26.5800,-9.0600,-36.0000,10240.0000,32.85707486,35.27914242,2.1213202476501465,
0.2620,0.0743,0.4495,0.9186,0.4672,-0.0858,0.0637,-0.3067,0.3543,-0.0024,-26.5800,-9.0600,-36.0000,10240.0000,32.85707486,35.27914242,2.1213202476501465,
0.2820,0.0821,0.4495,0.8951,0.4672,-0.0858,0.0637,-0.3067,0.3543,-0.0024,-26.5800,-9.0600,-36.0000,10240.0000,32.85707486,35.27914242,2.1213202476501465,
0.2830,0.0821,0.4495,0.8951,0.4672,-0.0858,0.0637,-0.0562,-0.2236,0.0122,-26.5800,-9.0600,-36.0000,10240.0000,32.85707486,35.27914242,2.1213202476501465,
0.2840,0.0821,0.4495,0.8951,0.6726,-0.3707,0.1864,-0.0562,-0.2236,0.0122,-26.5800,-9.0600,-36.0000,10240.0000,32.85707486,35.27914242,2.1213202476501465,
0.3050,0.0821,0.4534,0.8873,0.6726,-0.3707,0.1864,-0.0562,-0.2236,0.0122,-26.5800,-9.0600,-36.0000,10240.0000,32.85707486,35.27914242,2.1213202476501465,
0.3240,0.0782,0.4534,0.8834,0.6726,-0.3707,0.1864,-0.0562,-0.2236,0.0122,-26.5800,-9.0600,-36.0000,10240.0000,32.85707486,35.27914242,2.1213202476501465,
0.3410,0.0782,0.4534,0.8834,0.6726,-0.3707,0.1864,-0.0562,-0.2236,0.0122,-26.2200,-8.8200,-35.4600,10240.0000,32.85707486,35.27914242,2.1213202476501465,
0.3620,0.0743,0.4417,0.8834,0.6726,-0.3707,0.1864,-0.0562,-0.2236,0.0122,-26.2200,-8.8200,-35.4600,10240.0000,32.85707486,35.27914242,2.1213202476501465,
0.3810,0.0704,0.4456,0.8834,0.6726,-0.3707,0.1864,-0.0562,-0.2236,0.0122,-26.2200,-8.8200,-35.4600,10240.0000,32.85707486,35.27914242,2.1213202476501465,
0.4020,0.0704,0.4456,0.8795,0.6726,-0.3707,0.1864,-0.0562,-0.2236,0.0122,-26.2200,-8.8200,-35.4600,10240.0000,32.85707486,35.27914242,2.1213202476501465,
0.4070,0.0704,0.4456,0.8795,0.6726,-0.3707,0.1864,-0.0562,-0.2236,0.0122,-26.1600,-8.3400,-35.3400,10240.0000,32.85707486,35.27914242,2.1213202476501465,
0.4210,0.0625,0.4456,0.8756,0.6726,-0.3707,0.1864,-0.0562,-0.2236,0.0122,-26.1600,-8.3400,-35.3400,10240.0000,32.85707486,35.27914242,2.1213202476501465,
0.4410,0.0782,0.4339,0.8795,0.6726,-0.3707,0.1864,-0.0562,-0.2236,0.0122,-26.1600,-8.3400,-35.3400,10240.0000,32.85707486,35.27914242,2.1213202476501465,
0.4650,0.0743,0.4339,0.8834,0.6726,-0.3707,0.1864,-0.0562,-0.2236,0.0122,-26.1600,-8.3400,-35.3400,10240.0000,32.85707486,35.27914242,2.1213202476501465,
0.4830,0.0665,0.4300,0.8912,0.6726,-0.3707,0.1864,-0.0562,-0.2236,0.0122,-26.1600,-8.3400,-35.3400,10240.0000,32.85707486,35.27914242,2.1213202476501465,
0.4860,0.0665,0.4300,0.8912,0.6726,-0.3707,0.1864,-0.1344,-0.0757,-0.0721,-26.1600,-8.3400,-35.3400,10240.0000,32.85707486,35.27914242,2.1213202476501465,
0.4880,0.0665,0.4300,0.8912,0.2121,-0.3066,0.1805,-0.1344,-0.0757,-0.0721,-26.1600,-8.3400,-35.3400,10240.0000,32.85707486,35.27914242,2.1213202476501465,
0.5030,0.0586,0.4222,0.8990,0.2121,-0.3066,0.1805,-0.1344,-0.0757,-0.0721,-26.1600,-8.3400,-35.3400,10240.0000,32.85707486,35.27914242,2.1213202476501465,
0.5240,0.0625,0.4143,0.8951,0.2121,-0.3066,0.1805,-0.1344,-0.0757,-0.0721,-26.1600,-8.3400,-35.3400,10240.0000,32.85707486,35.27914242,2.1213202476501465,
0.5420,0.0625,0.4143,0.8951,0.2121,-0.3066,0.1805,-0.1344,-0.0757,-0.0721,-26.4600,-7.9200,-35.2200,10240.0000,32.85707486,35.27914242,2.1213202476501465,
0.5450,0.0625,0.4143,0.9030,0.2121,-0.3066,0.1805,-0.1344,-0.0757,-0.0721,-26.4600,-7.9200,-35.2200,10240.0000,32.85707486,35.27914242,2.1213202476501465,
0.5650,0.0586,0.4183,0.9069,0.2121,-0.3066,0.1805,-0.1344,-0.0757,-0.0721,-26.4600,-7.9200,-35.2200,10240.0000,32.85707486,35.27914242,2.1213202476501465,
0.5850,0.0586,0.4143,0.9186,0.2121,-0.3066,0.1805,-0.1344,-0.0757,-0.0721,-26.4600,-7.9200,-35.2200,10240.0000,32.85707486,35.27914242,2.1213202476501465,
0.6050,0.0625,0.4183,0.9147,0.2121,-0.3066,0.1805,-0.1344,-0.0757,-0.0721,-26.4600,-7.9200,-35.2200,10240.0000,32.85707486,35.27914242,2.1213202476501465,
0.6090,0.0625,0.4183,0.9147,0.2121,-0.3066,0.1805,-0.1344,-0.0757,-0.0721,-26.8200,-7.3800,-34.8600,10240.0000,32.85707486,35.27914242,2.1213202476501465,
0.6250,0.0704,0.4222,0.9108,0.2121,-0.3066,0.1805,-0.1344,-0.0757,-0.0721,-26.8200,-7.3800,-34.8600,10240.0000,32.85707486,35.27914242,2.1213202476501465,
0.6440,0.0743,0.4183,0.9108,0.2121,-0.3066,0.1805,-0.1344,-0.0757,-0.0721,-26.8200,-7.3800,-34.8600,10240.0000,32.85707486,35.27914242,2.1213202476501465,
0.6720,0.0665,0.4261,0.9069,0.2121,-0.3066,0.1805,-0.1344,-0.0757,-0.0721,-26.8200,-7.3800,-34.8600,10240.0000,32.85707486,35.27914242,2.1213202476501465,
0.6860,0.0625,0.4222,0.9147,0.2121,-0.3066,0.1805,-0.1344,-0.0757,-0.0721,-26.8200,-7.3800,-34.8600,10240.0000,32.85707486,35.27914242,2.1213202476501465,
0.6890,0.0625,0.4222,0.9147,0.2121,-0.3066,0.1805,-0.0977,-0.0538,-0.1112,-26.8200,-7.3800,-34.8600,10240.0000,32.85707486,35.27914242,2.1213202476501465,
0.6970,0.0625,0.4222,0.9147,0.0777,-0.2239,0.1365,-0.0977,-0.0538,-0.1112,-26.8200,-7.3800,-34.8600,10240.0000,32.85707486,35.27914242,2.1213202476501465,
0.7050,0.0586,0.4183,0.9225,0.0777,-0.2239,0.1365,-0.0977,-0.0538,-0.1112,-26.8200,-7.3800,-34.8600,10240.0000,32.85707486,35.27914242,2.1213202476501465,
0.7230,0.0547,0.4143,0.9303,0.0777,-0.2239,0.1365,-0.0977,-0.0538,-0.1112,-26.8200,-7.3800,-34.8600,10240.0000,32.85707486,35.27914242,2.1213202476501465,
0.7390,0.0547,0.4143,0.9303,0.0777,-0.2239,0.1365,-0.0977,-0.0538,-0.1112,-27.5400,-6.9600,-34.8000,10240.0000,32.85707486,35.27914242,2.1213202476501465,
0.7550,0.0665,0.4143,0.9381,0.0777,-0.2239,0.1365,-0.0977,-0.0538,-0.1112,-27.5400,-6.9600,-34.8000,10240.0000,32.85707486,35.27914242,2.1213202476501465,
0.7650,0.0665,0.4104,0.9381,0.0777,-0.2239,0.1365,-0.0977,-0.0538,-0.1112,-27.5400,-6.9600,-34.8000,10240.0000,32.85707486,35.27914242,2.1213202476501465,
0.7870,0.0665,0.4104,0.9420,0.0777,-0.2239,0.1365,-0.0977,-0.0538,-0.1112,-27.5400,-6.9600,-34.8000,10240.0000,32.85707486,35.27914242,2.1213202476501465,
0.8110,0.0665,0.4183,0.9303,0.0777,-0.2239,0.1365,-0.0977,-0.0538,-0.1112,-27.5400,-6.9600,-34.8000,10240.0000,32.85707486,35.27914242,2.1213202476501465,
0.8150,0.0665,0.4183,0.9303,0.0777,-0.2239,0.1365,-0.0977,-0.0538,-0.1112,-28.2000,-6.3600,-34.6200,10240.0000,32.85707486,35.27914242,2.1213202476501465,
0.8250,0.0665,0.4261,0.9186,0.0777,-0.2239,0.1365,-0.0977,-0.0538,-0.1112,-28.2000,-6.3600,-34.6200,10240.0000,32.85707486,35.27914242,2.1213202476501465,
0.8460,0.0625,0.4222,0.9147,0.0777,-0.2239,0.1365,-0.0977,-0.0538,-0.1112,-28.2000,-6.3600,-34.6200,10240.0000,32.85707486,35.27914242,2.1213202476501465,
0.8650,0.0586,0.4183,0.9186,0.0777,-0.2239,0.1365,-0.0977,-0.0538,-0.1112,-28.2000,-6.3600,-34.6200,10240.0000,32.85707486,35.27914242,2.1213202476501465,
1.1710,0.0547,0.4183,0.9264,0.0777,-0.2239,0.1365,-0.0977,-0.0538,-0.1112,-28.2000,-6.3600,-34.6200,10240.0000,32.85707486,35.27914242,2.1213202476501465,
1.1720,0.0547,0.4183,0.9264,0.0777,-0.2239,0.1365,-0.0244,0.0330,-0.0929,-28.2000,-6.3600,-34.6200,10240.0000,32.85707486,35.27914242,2.1213202476501465,
1.1760,0.0547,0.4183,0.9264,0.0206,-0.1890,0.1204,-0.0244,0.0330,-0.0929,-28.2000,-6.3600,-34.6200,10240.0000,32.85707486,35.27914242,2.1213202476501465,
1.1770,0.0586,0.4222,0.9225,0.0206,-0.1890,0.1204,-0.0244,0.0330,-0.0929,-28.2000,-6.3600,-34.6200,10240.0000,32.85707486,35.27914242,2.1213202476501465,
1.1780,0.0665,0.4222,0.9186,0.0206,-0.1890,0.1204,-0.0244,0.0330,-0.0929,-28.2000,-6.3600,-34.6200,10240.0000,32.85707486,35.27914242,2.1213202476501465,
1.1790,0.0665,0.4222,0.9186,0.0206,-0.1890,0.1204,-0.0244,0.0330,-0.0929,-28.9800,-5.8800,-34.5600,10240.0000,32.85707486,35.27914242,2.1213202476501465,
1.1800,0.0625,0.4222,0.9186,0.0206,-0.1890,0.1204,-0.0244,0.0330,-0.0929,-28.9800,-5.8800,-34.5600,10240.0000,32.85707486,35.27914242,2.1213202476501465,
1.1810,0.0586,0.4261,0.9186,0.0206,-0.1890,0.1204,-0.0244,0.0330,-0.0929,-28.9800,-5.8800,-34.5600,10240.0000,32.85707486,35.27914242,2.1213202476501465,
1.1820,0.0625,0.4222,0.9225,0.0206,-0.1890,0.1204,-0.0244,0.0330,-0.0929,-28.9800,-5.8800,-34.5600,10240.0000,32.85707486,35.27914242,2.1213202476501465,
1.1830,0.0704,0.4104,0.9264,0.0206,-0.1890,0.1204,-0.0244,0.0330,-0.0929,-28.9800,-5.8800,-34.5600,10240.0000,32.85707486,35.27914242,2.1213202476501465,
1.1870,0.0704,0.4104,0.9264,0.0206,-0.1890,0.1204,-0.0244,0.0330,-0.0929,-29.8800,-5.7000,-34.8000,10240.0000,32.85707486,35.27914242,2.1213202476501465,
1.1880,0.0743,0.4065,0.9264,0.0206,-0.1890,0.1204,-0.0244,0.0330,-0.0929,-29.8800,-5.7000,-34.8000,10240.0000,32.85707486,35.27914242,2.1213202476501465,
1.1890,0.0625,0.4104,0.9069,0.0206,-0.1890,0.1204,-0.0244,0.0330,-0.0929,-29.8800,-5.7000,-34.8000,10240.0000,32.85707486,35.27914242,2.1213202476501465,
1.2020,0.0625,0.4104,0.9069,0.0206,-0.1890,0.1204,-0.0244,0.0330,-0.0929,-30.3000,-6.0000,-34.5000,10240.0000,32.85707486,35.27914242,2.1213202476501465,
1.2030,0.0625,0.4183,0.8990,0.0206,-0.1890,0.1204,-0.0244,0.0330,-0.0929,-30.3000,-6.0000,-34.5000,10240.0000,32.85707486,35.27914242,2.1213202476501465,
1.2210,0.0586,0.4183,0.8990,0.0206,-0.1890,0.1204,-0.0244,0.0330,-0.0929,-30.3000,-6.0000,-34.5000,10240.0000,32.85707486,35.27914242,2.1213202476501465,
1.2410,0.0508,0.4183,0.9108,0.0206,-0.1890,0.1204,-0.0244,0.0330,-0.0929,-30.3000,-6.0000,-34.5000,10240.0000,32.85707486,35.27914242,2.1213202476501465,
1.2620,0.0625,0.4261,0.9225,0.0206,-0.1890,0.1204,-0.0244,0.0330,-0.0929,-30.3000,-6.0000,-34.5000,10240.0000,32.85707486,35.27914242,2.1213202476501465,
1.2820,0.0665,0.4143,0.9225,0.0206,-0.1890,0.1204,-0.0244,0.0330,-0.0929,-30.3000,-6.0000,-34.5000,10240.0000,32.85707486,35.27914242,2.1213202476501465,
1.2840,0.0665,0.4143,0.9225,0.0206,-0.1890,0.1204,-0.0672,-0.0391,-0.0269,-30.3000,-6.0000,-34.5000,10240.0000,32.85707486,35.27914242,2.1213202476501465,
1.2850,0.0665,0.4143,0.9225,-0.0134,-0.1627,0.0987,-0.0672,-0.0391,-0.0269,-30.3000,-6.0000,-34.5000,10240.0000,32.85707486,35.27914242,2.1213202476501465,
1.3020,0.0665,0.4065,0.9264,-0.0134,-0.1627,0.0987,-0.0672,-0.0391,-0.0269,-30.3000,-6.0000,-34.5000,10240.0000,32.85707486,35.27914242,2.1213202476501465,
1.3220,0.0586,0.4104,0.9264,-0.0134,-0.1627,0.0987,-0.0672,-0.0391,-0.0269,-30.3000,-6.0000,-34.5000,10240.0000,32.85707486,35.27914242,2.1213202476501465,
1.3340,0.0586,0.4104,0.9264,-0.0134,-0.1627,0.0987,-0.0672,-0.0391,-0.0269,-30.3600,-6.1800,-34.2000,10240.0000,32.85707486,35.27914242,2.1213202476501465,
1.3420,0.0586,0.4183,0.9225,-0.0134,-0.1627,0.0987,-0.0672,-0.0391,-0.0269,-30.3600,-6.1800,-34.2000,10240.0000,32.85707486,35.27914242,2.1213202476501465,
1.3620,0.0625,0.4222,0.9147,-0.0134,-0.1627,0.0987,-0.0672,-0.0391,-0.0269,-30.3600,-6.1800,-34.2000,10240.0000,32.85707486,35.27914242,2.1213202476501465,
1.4000,0.0625,0.4222,0.9147,-0.0134,-0.1627,0.0987,-0.0672,-0.0391,-0.0269,-30.4800,-6.4800,-33.9600,10240.0000,32.85707486,35.27914242,2.1213202476501465,
1.4020,0.0743,0.4143,0.9108,-0.0134,-0.1627,0.0987,-0.0672,-0.0391,-0.0269,-30.4800,-6.4800,-33.9600,10240.0000,32.85707486,35.27914242,2.1213202476501465,
1.4220,0.0782,0.4065,0.9147,-0.0134,-0.1627,0.0987,-0.0672,-0.0391,-0.0269,-30.4800,-6.4800,-33.9600,10240.0000,32.85707486,35.27914242,2.1213202476501465,
1.4500,0.0860,0.4065,0.9186,-0.0134,-0.1627,0.0987,-0.0672,-0.0391,-0.0269,-30.4800,-6.4800,-33.9600,10240.0000,32.85707486,35.27914242,2.1213202476501465,
1.4640,0.0899,0.3987,0.9264,-0.0134,-0.1627,0.0987,-0.0672,-0.0391,-0.0269,-30.4800,-6.4800,-33.9600,10240.0000,32.85707486,35.27914242,2.1213202476501465,
1.4840,0.0821,0.3987,0.9303,-0.0134,-0.1627,0.0987,-0.0672,-0.0391,-0.0269,-30.4800,-6.4800,-33.9600,10240.0000,32.85707486,35.27914242,2.1213202476501465,
1.4870,0.0821,0.3987,0.9303,-0.0134,-0.1627,0.0987,-0.0208,-0.0367,-0.0208,-30.4800,-6.4800,-33.9600,10240.0000,32.85707486,35.27914242,2.1213202476501465,
1.4910,0.0821,0.3987,0.9303,0.0403,-0.2209,0.1098,-0.0208,-0.0367,-0.0208,-30.4800,-6.4800,-33.9600,10240.0000,32.85707486,35.27914242,2.1213202476501465,
1.5050,0.0782,0.4104,0.9342,0.0403,-0.2209,0.1098,-0.0208,-0.0367,-0.0208,-30.4800,-6.4800,-33.9600,10240.0000,32.85707486,35.27914242,2.1213202476501465,
1.5450,0.0782,0.4026,0.9342,0.0403,-0.2209,0.1098,-0.0208,-0.0367,-0.0208,-30.4800,-6.4800,-33.9600,10240.0000,32.85707486,35.27914242,2.1213202476501465,
1.5490,0.0782,0.4026,0.9342,0.0403,-0.2209,0.1098,-0.0208,-0.0367,-0.0208,-30.6000,-6.4800,-33.7800,10240.0000,32.85707486,35.27914242,2.1213202476501465,
1.5540,0.0782,0.4026,0.9186,0.0403,-0.2209,0.1098,-0.0208,-0.0367,-0.0208,-30.6000,-6.4800,-33.7800,10240.0000,32.85707486,35.27914242,2.1213202476501465,
1.5670,0.0782,0.3987,0.9069,0.0403,-0.2209,0.1098,-0.0208,-0.0367,-0.0208,-30.6000,-6.4800,-33.7800,10240.0000,32.85707486,35.27914242,2.1213202476501465,
1.5820,0.0743,0.3987,0.9069,0.0403,-0.2209,0.1098,-0.0208,-0.0367,-0.0208,-30.6000,-6.4800,-33.7800,10240.0000,32.85707486,35.27914242,2.1213202476501465,
1.6000,0.0743,0.3987,0.9069,0.0403,-0.2209,0.1098,-0.0208,-0.0367,-0.0208,-30.7800,-6.7200,-33.4800,10240.0000,32.85707486,35.27914242,2.1213202476501465,
1.6020,0.0704,0.4026,0.9030,0.0403,-0.2209,0.1098,-0.0208,-0.0367,-0.0208,-30.7800,-6.7200,-33.4800,10240.0000,32.85707486,35.27914242,2.1213202476501465,
1.6230,0.0704,0.4026,0.9225,0.0403,-0.2209,0.1098,-0.0208,-0.0367,-0.0208,-30.7800,-6.7200,-33.4800,10240.0000,32.85707486,35.27914242,2.1213202476501465,
1.6440,0.0704,0.4065,0.9303,0.0403,-0.2209,0.1098,-0.0208,-0.0367,-0.0208,-30.7800,-6.7200,-33.4800,10240.0000,32.85707486,35.27914242,2.1213202476501465,
1.7040,0.0704,0.4065,0.9342,0.0403,-0.2209,0.1098,-0.0208,-0.0367,-0.0208,-30.7800,-6.7200,-33.4800,10240.0000,32.85707486,35.27914242,2.1213202476501465,
1.7080,0.0743,0.4104,0.9264,0.0403,-0.2209,0.1098,-0.0208,-0.0367,-0.0208,-30.7800,-6.7200,-33.4800,10240.0000,32.85707486,35.27914242,2.1213202476501465,
1.7150,0.0743,0.4104,0.9264,0.0403,-0.2209,0.1098,0.0147,-0.0232,-0.0342,-30.7800,-6.7200,-33.4800,10240.0000,32.85707486,35.27914242,2.1213202476501465,
1.7170,0.0743,0.4104,0.9264,-0.0852,-0.1181,0.0731,0.0147,-0.0232,-0.0342,-30.7800,-6.7200,-33.4800,10240.0000,32.85707486,35.27914242,2.1213202476501465,
1.7190,0.0743,0.4104,0.9108,-0.0852,-0.1181,0.0731,0.0147,-0.0232,-0.0342,-30.7800,-6.7200,-33.4800,10240.0000,32.85707486,35.27914242,2.1213202476501465,
1.7310,0.0743,0.4104,0.9108,-0.0852,-0.1181,0.0731,0.0147,-0.0232,-0.0342,-30.9000,-6.7200,-33.3600,10240.0000,32.85707486,35.27914242,2.1213202476501465,
2.0170,0.0743,0.4065,0.9108,-0.0852,-0.1181,0.0731,0.0147,-0.0232,-0.0342,-30.9000,-6.7200,-33.3600,10240.0000,32.85707486,35.27914242,2.1213202476501465,
2.0180,0.0743,0.4026,0.9069,-0.0852,-0.1181,0.0731,0.0147,-0.0232,-0.0342,-30.9000,-6.7200,-33.3600,10240.0000,32.85707486,35.27914242,2.1213202476501465,
2.0200,0.0782,0.3987,0.9030,-0.0852,-0.1181,0.0731,0.0147,-0.0232,-0.0342,-30.9000,-6.7200,-33.3600,10240.0000,32.85707486,35.27914242,2.1213202476501465,
2.0220,0.0782,0.3987,0.9030,-0.0852,-0.1181,0.0731,0.0147,-0.0232,-0.0342,-30.9000,-6.7200,-33.1800,10240.0000,32.85707486,35.27914242,2.1213202476501465,
2.0230,0.0743,0.3948,0.9030,-0.0852,-0.1181,0.0731,0.0147,-0.0232,-0.0342,-30.9000,-6.7200,-33.1800,10240.0000,32.85707486,35.27914242,2.1213202476501465,
2.0250,0.0704,0.3909,0.9108,-0.0852,-0.1181,0.0731,0.0147,-0.0232,-0.0342,-30.9000,-6.7200,-33.1800,10240.0000,32.85707486,35.27914242,2.1213202476501465,
2.0260,0.0704,0.4261,0.9499,-0.0852,-0.1181,0.0731,0.0147,-0.0232,-0.0342,-30.9000,-6.7200,-33.1800,10240.0000,32.85707486,35.27914242,2.1213202476501465,
2.0270,0.0625,0.3909,0.9420,-0.0852,-0.1181,0.0731,0.0147,-0.0232,-0.0342,-30.9000,-6.7200,-33.1800,10240.0000,32.85707486,35.27914242,2.1213202476501465,
2.0290,0.0625,0.4026,0.9342,-0.0852,-0.1181,0.0731,0.0147,-0.0232,-0.0342,-30.9000,-6.7200,-33.1800,10240.0000,32.85707486,35.27914242,2.1213202476501465,
2.0300,0.0625,0.4026,0.9342,-0.0852,-0.1181,0.0731,0.0122,0.0208,-0.0904,-30.9000,-6.7200,-33.1800,10240.0000,32.85707486,35.27914242,2.1213202476501465,
2.0310,0.0625,0.4026,0.9342,-0.1785,-0.2437,0.1339,0.0122,0.0208,-0.0904,-30.9000,-6.7200,-33.1800,10240.0000,32.85707486,35.27914242,2.1213202476501465,
2.0330,0.0508,0.4183,0.9381,-0.1785,-0.2437,0.1339,0.0122,0.0208,-0.0904,-30.9000,-6.7200,-33.1800,10240.0000,32.85707486,35.27914242,2.1213202476501465,
2.0340,0.0821,0.4026,0.9147,-0.1785,-0.2437,0.1339,0.0122,0.0208,-0.0904,-30.9000,-6.7200,-33.1800,10240.0000,32.85707486,35.27914242,2.1213202476501465,
2.0420,0.0899,0.4026,0.9186,-0.1785,-0.2437,0.1339,0.0122,0.0208,-0.0904,-30.9000,-6.7200,-33.1800,10240.0000,32.85707486,35.27914242,2.1213202476501465,
2.0620,0.0938,0.3909,0.9342,-0.1785,-0.2437,0.1339,0.0122,0.0208,-0.0904,-30.9000,-6.7200,-33.1800,10240.0000,32.85707486,35.27914242,2.1213202476501465,
2.0820,0.0860,0.3909,0.9460,-0.1785,-0.2437,0.1339,0.0122,0.0208,-0.0904,-30.9000,-6.7200,-33.1800,10240.0000,32.85707486,35.27914242,2.1213202476501465,
2.0840,0.0860,0.3909,0.9460,-0.1785,-0.2437,0.1339,0.0073,0.1772,-0.0623,-30.9000,-6.7200,-33.1800,10240.0000,32.85707486,35.27914242,2.1213202476501465,
2.0850,0.0860,0.3909,0.9460,0.1143,-0.3757,0.1651,0.0073,0.1772,-0.0623,-30.9000,-6.7200,-33.1800,10240.0000,32.85707486,35.27914242,2.1213202476501465,
2.1040,0.0743,0.3870,0.9420,0.1143,-0.3757,0.1651,0.0073,0.1772,-0.0623,-30.9000,-6.7200,-33.1800,10240.0000,32.85707486,35.27914242,2.1213202476501465,
2.1220,0.0782,0.3948,0.9342,0.1143,-0.3757,0.1651,0.0073,0.1772,-0.0623,-30.9000,-6.7200,-33.1800,10240.0000,32.85707486,35.27914242,2.1213202476501465,
2.1270,0.0782,0.3948,0.9342,0.1143,-0.3757,0.1651,0.0073,0.1772,-0.0623,-30.4800,-7.2000,-32.5200,10240.0000,32.85707486,35.27914242,2.1213202476501465,
2.1420,0.0782,0.4104,0.9030,0.1143,-0.3757,0.1651,0.0073,0.1772,-0.0623,-30.4800,-7.2000,-32.5200,10240.0000,32.85707486,35.27914242,2.1213202476501465,
2.1670,0.0821,0.4183,0.8912,0.1143,-0.3757,0.1651,0.0073,0.1772,-0.0623,-30.4800,-7.2000,-32.5200,10240.0000,32.85707486,35.27914242,2.1213202476501465,
2.1990,0.0821,0.4261,0.8912,0.1143,-0.3757,0.1651,0.0073,0.1772,-0.0623,-30.4800,-7.2000,-32.5200,10240.0000,32.85707486,35.27914242,2.1213202476501465,
2.2020,0.0821,0.4261,0.8912,0.1143,-0.3757,0.1651,0.0073,0.1772,-0.0623,-30.3000,-7.5600,-32.4600,10240.0000,32.85707486,35.27914242,2.1213202476501465,
2.2040,0.0782,0.4378,0.8912,0.1143,-0.3757,0.1651,0.0073,0.1772,-0.0623,-30.3000,-7.5600,-32.4600,10240.0000,32.85707486,35.27914242,2.1213202476501465,
2.2630,0.0704,0.4378,0.9069,0.1143,-0.3757,0.1651,0.0073,0.1772,-0.0623,-30.3000,-7.5600,-32.4600,10240.0000,32.85707486,35.27914242,2.1213202476501465,
2.2650,0.0586,0.4378,0.9303,0.1143,-0.3757,0.1651,0.0073,0.1772,-0.0623,-30.3000,-7.5600,-32.4600,10240.0000,32.85707486,35.27914242,2.1213202476501465,
2.2670,0.0469,0.4339,0.9420,0.1143,-0.3757,0.1651,0.0073,0.1772,-0.0623,-30.3000,-7.5600,-32.4600,10240.0000,32.85707486,35.27914242,2.1213202476501465,
2.2880,0.0430,0.4339,0.9499,0.1143,-0.3757,0.1651,0.0073,0.1772,-0.0623,-30.3000,-7.5600,-32.4600,10240.0000,32.85707486,35.27914242,2.1213202476501465,
2.2900,0.0430,0.4339,0.9499,0.1143,-0.3757,0.1651,0.0904,-0.0147,-0.0403,-30.3000,-7.5600,-32.4600,10240.0000,32.85707486,35.27914242,2.1213202476501465,
2.2920,0.0430,0.4339,0.9499,-0.1546,-0.0944,0.0612,0.0904,-0.0147,-0.0403,-30.3000,-7.5600,-32.4600,10240.0000,32.85707486,35.27914242,2.1213202476501465,
2.3040,0.0508,0.4456,0.9342,-0.1546,-0.0944,0.0612,0.0904,-0.0147,-0.0403,-30.3000,-7.5600,-32.4600,10240.0000,32.85707486,35.27914242,2.1213202476501465,
2.3230,0.0469,0.4417,0.9264,-0.1546,-0.0944,0.0612,0.0904,-0.0147,-0.0403,-30.3000,-7.5600,-32.4600,10240.0000,32.85707486,35.27914242,2.1213202476501465,
2.3260,0.0469,0.4417,0.9264,-0.1546,-0.0944,0.0612,0.0904,-0.0147,-0.0403,-30.1200,-7.8000,-32.2800,10240.0000,32.85707486,35.27914242,2.1213202476501465,
2.3420,0.0508,0.4378,0.9186,-0.1546,-0.0944,0.0612,0.0904,-0.0147,-0.0403,-30.1200,-7.8000,-32.2800,10240.0000,32.85707486,35.27914242,2.1213202476501465,
2.3620,0.0508,0.4339,0.9147,-0.1546,-0.0944,0.0612,0.0904,-0.0147,-0.0403,-30.1200,-7.8000,-32.2800,10240.0000,32.85707486,35.27914242,2.1213202476501465,
2.3830,0.0508,0.4417,0.9069,-0.1546,-0.0944,0.0612,0.0904,-0.0147,-0.0403,-30.1200,-7.8000,-32.2800,10240.0000,32.85707486,35.27914242,2.1213202476501465,
2.3930,0.0508,0.4417,0.9069,-0.1546,-0.0944,0.0612,0.0904,-0.0147,-0.0403,-30.0600,-8.0400,-32.3400,10240.0000,32.85707486,35.27914242,2.1213202476501465,
2.4060,0.0469,0.4495,0.8990,-0.1546,-0.0944,0.0612,0.0904,-0.0147,-0.0403,-30.0600,-8.0400,-32.3400,10240.0000,32.85707486,35.27914242,2.1213202476501465,
2.4250,0.0508,0.4495,0.8990,-0.1546,-0.0944,0.0612,0.0904,-0.0147,-0.0403,-30.0600,-8.0400,-32.3400,10240.0000,32.85707486,35.27914242,2.1213202476501465,
2.4430,0.0704,0.4417,0.8912,-0.1546,-0.0944,0.0612,0.0904,-0.0147,-0.0403,-30.0600,-8.0400,-32.3400,10240.0000,32.85707486,35.27914242,2.1213202476501465,
2.4630,0.0704,0.4417,0.8951,-0.1546,-0.0944,0.0612,0.0904,-0.0147,-0.0403,-30.0600,-8.0400,-32.3400,10240.0000,32.85707486,35.27914242,2.1213202476501465,
2.4840,0.0704,0.4417,0.8951,-0.1546,-0.0944,0.0612,0.0122,-0.0269,0.0061,-30.0600,-8.0400,-32.3400,10240.0000,32.85707486,35.27914242,2.1213202476501465,
2.4860,0.0704,0.4417,0.8951,0.0370,0.0795,-0.0411,0.0122,-0.0269,0.0061,-30.0600,-8.0400,-32.3400,10240.0000,32.85707486,35.27914242,2.1213202476501465,
2.4890,0.0704,0.4417,0.8990,0.0370,0.0795,-0.0411,0.0122,-0.0269,0.0061,-30.0600,-8.0400,-32.3400,10240.0000,32.85707486,35.27914242,2.1213202476501465,
2.5030,0.0704,0.4339,0.9108,0.0370,0.0795,-0.0411,0.0122,-0.0269,0.0061,-30.0600,-8.0400,-32.3400,10240.0000,32.85707486,35.27914242,2.1213202476501465,
2.5250,0.0782,0.4261,0.9069,0.0370,0.0795,-0.0411,0.0122,-0.0269,0.0061,-30.0600,-8.0400,-32.3400,10240.0000,32.85707486,35.27914242,2.1213202476501465,
2.5290,0.0782,0.4261,0.9069,0.0370,0.0795,-0.0411,0.0122,-0.0269,0.0061,-30.0600,-8.4600,-32.3400,10240.0000,32.85707486,35.27914242,2.1213202476501465,
2.5450,0.0821,0.4300,0.8990,0.0370,0.0795,-0.0411,0.0122,-0.0269,0.0061,-30.0600,-8.4600,-32.3400,10240.0000,32.85707486,35.27914242,2.1213202476501465,
2.8720,0.0821,0.4339,0.8990,0.0370,0.0795,-0.0411,0.0122,-0.0269,0.0061,-30.0600,-8.4600,-32.3400,10240.0000,32.85707486,35.27914242,2.1213202476501465,
2.8740,0.0782,0.4378,0.9069,0.0370,0.0795,-0.0411,0.0122,-0.0269,0.0061,-30.0600,-8.4600,-32.3400,10240.0000,32.85707486,35.27914242,2.1213202476501465,
2.8750,0.0782,0.4378,0.9069,0.0370,0.0795,-0.0411,0.0122,-0.0269,0.0061,-30.0600,-8.9400,-32.4000,10240.0000,32.85707486,35.27914242,2.1213202476501465,
2.8770,0.0782,0.4378,0.9147,0.0370,0.0795,-0.0411,0.0122,-0.0269,0.0061,-30.0600,-8.9400,-32.4000,10240.0000,32.85707486,35.27914242,2.1213202476501465,
2.8790,0.0782,0.4417,0.9147,0.0370,0.0795,-0.0411,0.0122,-0.0269,0.0061,-30.0600,-8.9400,-32.4000,10240.0000,32.85707486,35.27914242,2.1213202476501465,
2.8810,0.0782,0.4417,0.9108,0.0370,0.0795,-0.0411,0.0122,-0.0269,0.0061,-30.0600,-8.9400,-32.4000,10240.0000,32.85707486,35.27914242,2.1213202476501465,
2.8820,0.0743,0.4456,0.9147,0.0370,0.0795,-0.0411,0.0122,-0.0269,0.0061,-30.0600,-8.9400,-32.4000,10240.0000,32.85707486,35.27914242,2.1213202476501465,
2.8880,0.0743,0.4495,0.9186,0.0370,0.0795,-0.0411,0.0122,-0.0269,0.0061,-30.0600,-8.9400,-32.4000,10240.0000,32.85707486,35.27914242,2.1213202476501465,
2.8900,0.0743,0.4495,0.9186,0.0370,0.0795,-0.0411,0.0330,0.0159,0.0208,-30.0600,-8.9400,-32.4000,10240.0000,32.85707486,35.27914242,2.1213202476501465,
2.8970,0.0743,0.4495,0.9186,-0.0527,0.0168,-0.0108,0.0330,0.0159,0.0208,-30.0600,-8.9400,-32.4000,10240.0000,32.85707486,35.27914242,2.1213202476501465,
2.9040,0.0782,0.4456,0.9108,-0.0527,0.0168,-0.0108,0.0330,0.0159,0.0208,-30.0600,-8.9400,-32.4000,10240.0000,32.85707486,35.27914242,2.1213202476501465,
2.9050,0.0782,0.4495,0.9030,-0.0527,0.0168,-0.0108,0.0330,0.0159,0.0208,-30.0600,-8.9400,-32.4000,10240.0000,32.85707486,35.27914242,2.1213202476501465,
2.9070,0.0743,0.4534,0.8951,-0.0527,0.0168,-0.0108,0.0330,0.0159,0.0208,-30.0600,-8.9400,-32.4000,10240.0000,32.85707486,35.27914242,2.1213202476501465,
2.9080,0.0743,0.4534,0.8951,-0.0527,0.0168,-0.0108,-0.0147,-0.0330,0.0415,-30.0600,-8.9400,-32.4000,10240.0000,32.85707486,35.27914242,2.1213202476501465,
2.9100,0.0743,0.4534,0.8951,-0.1218,0.1255,-0.0582,-0.0147,-0.0330,0.0415,-30.0600,-8.9400,-32.4000,10240.0000,32.85707486,35.27914242,2.1213202476501465,
2.9120,0.0782,0.4613,0.8873,-0.1218,0.1255,-0.0582,-0.0147,-0.0330,0.0415,-30.0600,-8.9400,-32.4000,10240.0000,32.85707486,35.27914242,2.1213202476501465,
2.9220,0.0821,0.4573,0.8834,-0.1218,0.1255,-0.0582,-0.0147,-0.0330,0.0415,-30.0600,-8.9400,-32.4000,10240.0000,32.85707486,35.27914242,2.1213202476501465,
2.9240,0.0821,0.4573,0.8834,-0.1218,0.1255,-0.0582,-0.0147,-0.0330,0.0415,-30.8400,-10.0800,-32.6400,10240.0000,32.85707486,35.27914242,2.1213202476501465,
2.9420,0.0860,0.4573,0.8873,-0.1218,0.1255,-0.0582,-0.0147,-0.0330,0.0415,-30.8400,-10.0800,-32.6400,10240.0000,32.85707486,35.27914242,2.1213202476501465,
2.9620,0.0821,0.4456,0.8990,-0.1218,0.1255,-0.0582,-0.0147,-0.0330,0.0415,-30.8400,-10.0800,-32.6400,10240.0000,32.85707486,35.27914242,2.1213202476501465,
2.9880,0.0821,0.4456,0.8990,-0.1218,0.1255,-0.0582,-0.0147,-0.0330,0.0415,-31.1400,-9.9600,-32.5800,10240.0000,32.85707486,35.27914242,2.1213202476501465,
3.0020,0.0782,0.4417,0.8990,-0.1218,0.1255,-0.0582,-0.0147,-0.0330,0.0415,-31.1400,-9.9600,-32.5800,10240.0000,32.85707486,35.27914242,2.1213202476501465,
3.0230,0.0743,0.4495,0.8990,-0.1218,0.1255,-0.0582,-0.0147,-0.0330,0.0415,-31.1400,-9.9600,-32.5800,10240.0000,32.85707486,35.27914242,2.1213202476501465,
3.0420,0.0665,0.4495,0.9030,-0.1218,0.1255,-0.0582,-0.0147,-0.0330,0.0415,-31.1400,-9.9600,-32.5800,10240.0000,32.85707486,35.27914242,2.1213202476501465,
3.0650,0.0625,0.4495,0.9069,-0.1218,0.1255,-0.0582,-0.0147,-0.0330,0.0415,-31.1400,-9.9600,-32.5800,10240.0000,32.85707486,35.27914242,2.1213202476501465,
3.0850,0.0625,0.4534,0.9069,-0.1218,0.1255,-0.0582,-0.0147,-0.0330,0.0415,-31.1400,-9.9600,-32.5800,10240.0000,32.85707486,35.27914242,2.1213202476501465,
3.0880,0.0625,0.4534,0.9069,-0.1218,0.1255,-0.0582,0.0195,0.0354,-0.0538,-31.1400,-9.9600,-32.5800,10240.0000,32.85707486,35.27914242,2.1213202476501465,
3.0930,0.0625,0.4534,0.9069,-0.2754,0.1130,-0.0375,0.0195,0.0354,-0.0538,-31.1400,-9.9600,-32.5800,10240.0000,32.85707486,35.27914242,2.1213202476501465,
3.1050,0.0665,0.4613,0.8912,-0.2754,0.1130,-0.0375,0.0195,0.0354,-0.0538,-31.1400,-9.9600,-32.5800,10240.0000,32.85707486,35.27914242,2.1213202476501465,
3.1240,0.0665,0.4613,0.8912,-0.2754,0.1130,-0.0375,0.0195,0.0354,-0.0538,-31.1400,-10.2000,-32.7600,10240.0000,32.85707486,35.27914242,2.1213202476501465,
3.1280,0.0625,0.4652,0.8990,-0.2754,0.1130,-0.0375,0.0195,0.0354,-0.0538,-31.1400,-10.2000,-32.7600,10240.0000,32.85707486,35.27914242,2.1213202476501465,
3.1490,0.0586,0.4613,0.9069,-0.2754,0.1130,-0.0375,0.0195,0.0354,-0.0538,-31.1400,-10.2000,-32.7600,10240.0000,32.85707486,35.27914242,2.1213202476501465,
3.1650,0.0547,0.4613,0.9108,-0.2754,0.1130,-0.0375,0.0195,0.0354,-0.0538,-31.1400,-10.2000,-32.7600,10240.0000,32.85707486,35.27914242,2.1213202476501465,
3.1840,0.0547,0.4652,0.8990,-0.2754,0.1130,-0.0375,0.0195,0.0354,-0.0538,-31.1400,-10.2000,-32.7600,10240.0000,32.85707486,35.27914242,2.1213202476501465,
3.1890,0.0547,0.4652,0.8990,-0.2754,0.1130,-0.0375,0.0195,0.0354,-0.0538,-31.1400,-10.2600,-32.7000,10240.0000,32.85707486,35.27914242,2.1213202476501465,
3.2080,0.0508,0.4613,0.9030,-0.2754,0.1130,-0.0375,0.0195,0.0354,-0.0538,-31.1400,-10.2600,-32.7000,10240.0000,32.85707486,35.27914242,2.1213202476501465,
3.2320,0.0508,0.4652,0.9030,-0.2754,0.1130,-0.0375,0.0195,0.0354,-0.0538,-31.1400,-10.2600,-32.7000,10240.0000,32.85707486,35.27914242,2.1213202476501465,
3.2450,0.0508,0.4691,0.8951,-0.2754,0.1130,-0.0375,0.0195,0.0354,-0.0538,-31.1400,-10.2600,-32.7000,10240.0000,32.85707486,35.27914242,2.1213202476501465,
3.2650,0.0586,0.4691,0.8951,-0.2754,0.1130,-0.0375,0.0195,0.0354,-0.0538,-31.1400,-10.2600,-32.7000,10240.0000,32.85707486,35.27914242,2.1213202476501465,
3.2920,0.0586,0.4652,0.8912,-0.2754,0.1130,-0.0375,0.0195,0.0354,-0.0538,-31.1400,-10.2600,-32.7000,10240.0000,32.85707486,35.27914242,2.1213202476501465,
3.2960,0.0586,0.4652,0.8912,-0.2754,0.1130,-0.0375,0.0220,0.1063,0.0367,-31.1400,-10.2600,-32.7000,10240.0000,32.85707486,35.27914242,2.1213202476501465,
3.3030,0.0586,0.4652,0.8912,-0.1953,0.1910,-0.0839,0.0220,0.1063,0.0367,-31.1400,-10.2600,-32.7000,10240.0000,32.85707486,35.27914242,2.1213202476501465,
3.3070,0.0625,0.4652,0.8912,-0.1953,0.1910,-0.0839,0.0220,0.1063,0.0367,-31.1400,-10.2600,-32.7000,10240.0000,32.85707486,35.27914242,2.1213202476501465,
3.3220,0.0625,0.4652,0.8912,-0.1953,0.1910,-0.0839,0.0220,0.1063,0.0367,-31.1400,-10.3800,-32.7600,10240.0000,32.85707486,35.27914242,2.1213202476501465,
3.3260,0.0665,0.4652,0.8912,-0.1953,0.1910,-0.0839,0.0220,0.1063,0.0367,-31.1400,-10.3800,-32.7600,10240.0000,32.85707486,35.27914242,2.1213202476501465,
3.3450,0.0704,0.4573,0.8912,-0.1953,0.1910,-0.0839,0.0220,0.1063,0.0367,-31.1400,-10.3800,-32.7600,10240.0000,32.85707486,35.27914242,2.1213202476501465,
3.3650,0.0743,0.4573,0.8951,-0.1953,0.1910,-0.0839,0.0220,0.1063,0.0367,-31.1400,-10.3800,-32.7600,10240.0000,32.85707486,35.27914242,2.1213202476501465,
3.3890,0.0743,0.4573,0.8951,-0.1953,0.1910,-0.0839,0.0220,0.1063,0.0367,-31.1400,-10.2000,-32.8200,10240.0000,32.85707486,35.27914242,2.1213202476501465,
3.4040,0.0743,0.4534,0.8951,-0.1953,0.1910,-0.0839,0.0220,0.1063,0.0367,-31.1400,-10.2000,-32.8200,10240.0000,32.85707486,35.27914242,2.1213202476501465,
3.4250,0.0743,0.4573,0.8990,-0.1953,0.1910,-0.0839,0.0220,0.1063,0.0367,-31.1400,-10.2000,-32.8200,10240.0000,32.85707486,35.27914242,2.1213202476501465,
3.7780,0.0782,0.4534,0.8990,-0.1953,0.1910,-0.0839,0.0220,0.1063,0.0367,-31.1400,-10.2000,-32.8200,10240.0000,32.85707486,35.27914242,2.1213202476501465,
3.7790,0.0743,0.4534,0.8990,-0.1953,0.1910,-0.0839,0.0220,0.1063,0.0367,-31.1400,-10.2000,-32.8200,10240.0000,32.85707486,35.27914242,2.1213202476501465,
3.7810,0.0547,0.4534,0.9069,-0.1953,0.1910,-0.0839,0.0220,0.1063,0.0367,-31.1400,-10.2000,-32.8200,10240.0000,32.85707486,35.27914242,2.1213202476501465,
3.7820,0.0547,0.4534,0.9069,-0.1953,0.1910,-0.0839,0.0061,0.0574,-0.0318,-31.1400,-10.2000,-32.8200,10240.0000,32.85707486,35.27914242,2.1213202476501465,
3.7830,0.0547,0.4534,0.9069,-0.1040,0.0160,-0.0006,0.0061,0.0574,-0.0318,-31.1400,-10.2000,-32.8200,10240.0000,32.85707486,35.27914242,2.1213202476501465,
3.7840,0.0469,0.4573,0.9186,-0.1040,0.0160,-0.0006,0.0061,0.0574,-0.0318,-31.1400,-10.2000,-32.8200,10240.0000,32.85707486,35.27914242,2.1213202476501465,
3.7850,0.0469,0.4573,0.9186,-0.1040,0.0160,-0.0006,0.0061,0.0574,-0.0318,-31.3800,-10.2000,-33.0600,10240.0000,32.85707486,35.27914242,2.1213202476501465,
3.7860,0.0352,0.4652,0.9186,-0.1040,0.0160,-0.0006,0.0061,0.0574,-0.0318,-31.3800,-10.2000,-33.0600,10240.0000,32.85707486,35.27914242,2.1213202476501465,
3.7870,0.0274,0.4652,0.9186,-0.1040,0.0160,-0.0006,0.0061,0.0574,-0.0318,-31.3800,-10.2000,-33.0600,10240.0000,32.85707486,35.27914242,2.1213202476501465,
3.7880,0.0352,0.4652,0.9069,-0.1040,0.0160,-0.0006,0.0061,0.0574,-0.0318,-31.3800,-10.2000,-33.0600,10240.0000,32.85707486,35.27914242,2.1213202476501465,
3.7890,0.0469,0.4691,0.8873,-0.1040,0.0160,-0.0006,0.0061,0.0574,-0.0318,-31.3800,-10.2000,-33.0600,10240.0000,32.85707486,35.27914242,2.1213202476501465,
3.7900,0.0469,0.4691,0.8873,-0.1040,0.0160,-0.0006,0.0061,0.0574,-0.0318,-31.4400,-9.9600,-33.3000,10240.0000,32.85707486,35.27914242,2.1213202476501465,
3.7910,0.0508,0.4613,0.8912,-0.1040,0.0160,-0.0006,0.0061,0.0574,-0.0318,-31.4400,-9.9600,-33.3000,10240.0000,32.85707486,35.27914242,2.1213202476501465,
3.7920,0.0508,0.4613,0.8912,-0.1040,0.0160,-0.0006,0.0061,0.0574,-0.0318,-30.9000,-10.2600,-33.0000,10240.0000,32.85707486,35.27914242,2.1213202476501465,
3.8010,0.0547,0.4613,0.8912,-0.1040,0.0160,-0.0006,0.0061,0.0574,-0.0318,-30.9000,-10.2600,-33.0000,10240.0000,32.85707486,35.27914242,2.1213202476501465,
3.8210,0.0508,0.4652,0.8951,-0.1040,0.0160,-0.0006,0.0061,0.0574,-0.0318,-30.9000,-10.2600,-33.0000,10240.0000,32.85707486,35.27914242,2.1213202476501465,
3.8410,0.0469,0.4691,0.9030,-0.1040,0.0160,-0.0006,0.0061,0.0574,-0.0318,-30.9000,-10.2600,-33.0000,10240.0000,32.85707486,35.27914242,2.1213202476501465,
3.8620,0.0430,0.4652,0.9303,-0.1040,0.0160,-0.0006,0.0061,0.0574,-0.0318,-30.9000,-10.2600,-33.0000,10240.0000,32.85707486,35.27914242,2.1213202476501465,
3.8820,0.0469,0.4652,0.9264,-0.1040,0.0160,-0.0006,0.0061,0.0574,-0.0318,-30.9000,-10.2600,-33.0000,10240.0000,32.85707486,35.27914242,2.1213202476501465,
3.8840,0.0469,0.4652,0.9264,-0.1040,0.0160,-0.0006,-0.0415,0.0354,-0.0134,-30.9000,-10.2600,-33.0000,10240.0000,32.85707486,35.27914242,2.1213202476501465,
3.8850,0.0469,0.4652,0.9264,-0.1498,0.0099,0.0032,-0.0415,0.0354,-0.0134,-30.9000,-10.2600,-33.0000,10240.0000,32.85707486,35.27914242,2.1213202476501465,
3.9020,0.0586,0.4652,0.9147,-0.1498,0.0099,0.0032,-0.0415,0.0354,-0.0134,-30.9000,-10.2600,-33.0000,10240.0000,32.85707486,35.27914242,2.1213202476501465,
3.9150,0.0586,0.4652,0.9147,-0.1498,0.0099,0.0032,-0.0415,0.0354,-0.0134,-30.9600,-10.4400,-33.1200,10240.0000,32.85707486,35.27914242,2.1213202476501465,
3.9220,0.0547,0.4652,0.9069,-0.1498,0.0099,0.0032,-0.0415,0.0354,-0.0134,-30.9600,-10.4400,-33.1200,10240.0000,32.85707486,35.27914242,2.1213202476501465,
3.9420,0.0469,0.4652,0.9108,-0.1498,0.0099,0.0032,-0.0415,0.0354,-0.0134,-30.9600,-10.4400,-33.1200,10240.0000,32.85707486,35.27914242,2.1213202476501465,
3.9700,0.0469,0.4652,0.9069,-0.1498,0.0099,0.0032,-0.0415,0.0354,-0.0134,-30.9600,-10.4400,-33.1200,10240.0000,32.85707486,35.27914242,2.1213202476501465,
3.9830,0.0469,0.4652,0.9069,-0.1498,0.0099,0.0032,-0.0415,0.0354,-0.0134,-30.7800,-10.3800,-33.1200,10240.0000,32.85707486,35.27914242,2.1213202476501465,
3.9950,0.0469,0.4691,0.8951,-0.1498,0.0099,0.0032,-0.0415,0.0354,-0.0134,-30.7800,-10.3800,-33.1200,10240.0000,32.85707486,35.27914242,2.1213202476501465,
4.0140,0.0430,0.4730,0.8951,-0.1498,0.0099,0.0032,-0.0415,0.0354,-0.0134,-30.7800,-10.3800,-33.1200,10240.0000,32.85707486,35.27914242,2.1213202476501465,
4.0340,0.0430,0.4691,0.8873,-0.1498,0.0099,0.0032,-0.0415,0.0354,-0.0134,-30.7800,-10.3800,-33.1200,10240.0000,32.85707486,35.27914242,2.1213202476501465,
4.0540,0.0430,0.4691,0.8795,-0.1498,0.0099,0.0032,-0.0415,0.0354,-0.0134,-30.7800,-10.3800,-33.1200,10240.0000,32.85707486,35.27914242,2.1213202476501465,
4.0740,0.0469,0.4652,0.8756,-0.1498,0.0099,0.0032,-0.0415,0.0354,-0.0134,-30.7800,-10.3800,-33.1200,10240.0000,32.85707486,35.27914242,2.1213202476501465,
4.0840,0.0469,0.4652,0.8756,-0.1498,0.0099,0.0032,0.0318,0.0000,-0.0049,-30.7800,-10.3800,-33.1200,10240.0000,32.85707486,35.27914242,2.1213202476501465,
4.0880,0.0469,0.4652,0.8756,-0.1122,0.1758,-0.0841,0.0318,0.0000,-0.0049,-30.7800,-10.3800,-33.1200,10240.0000,32.85707486,35.27914242,2.1213202476501465,
4.1150,0.0508,0.4691,0.8756,-0.1122,0.1758,-0.0841,0.0318,0.0000,-0.0049,-30.7800,-10.3800,-33.1200,10240.0000,32.85707486,35.27914242,2.1213202476501465,
4.1220,0.0508,0.4691,0.8756,-0.1122,0.1758,-0.0841,0.0318,0.0000,-0.0049,-30.7800,-10.4400,-33.3000,10240.0000,32.85707486,35.27914242,2.1213202476501465,
4.1340,0.0469,0.4691,0.8834,-0.1122,0.1758,-0.0841,0.0318,0.0000,-0.0049,-30.7800,-10.4400,-33.3000,10240.0000,32.85707486,35.27914242,2.1213202476501465,
4.1550,0.0430,0.4652,0.8912,-0.1122,0.1758,-0.0841,0.0318,0.0000,-0.0049,-30.7800,-10.4400,-33.3000,10240.0000,32.85707486,35.27914242,2.1213202476501465,
4.1750,0.0469,0.4652,0.8912,-0.1122,0.1758,-0.0841,0.0318,0.0000,-0.0049,-30.7800,-10.4400,-33.3000,10240.0000,32.85707486,35.27914242,2.1213202476501465,
4.1900,0.0469,0.4652,0.8912,-0.1122,0.1758,-0.0841,0.0318,0.0000,-0.0049,-30.9000,-10.3800,-33.3000,10240.0000,32.85707486,35.27914242,2.1213202476501465,
4.2190,0.0508,0.4730,0.8834,-0.1122,0.1758,-0.0841,0.0318,0.0000,-0.0049,-30.9000,-10.3800,-33.3000,10240.0000,32.85707486,35.27914242,2.1213202476501465,
4.2220,0.0469,0.4730,0.8912,-0.1122,0.1758,-0.0841,0.0318,0.0000,-0.0049,-30.9000,-10.3800,-33.3000,10240.0000,32.85707486,35.27914242,2.1213202476501465,
4.2340,0.0430,0.4652,0.8990,-0.1122,0.1758,-0.0841,0.0318,0.0000,-0.0049,-30.9000,-10.3800,-33.3000,10240.0000,32.85707486,35.27914242,2.1213202476501465,
4.2550,0.0469,0.4613,0.8951,-0.1122,0.1758,-0.0841,0.0318,0.0000,-0.0049,-30.9000,-10.3800,-33.3000,10240.0000,32.85707486,35.27914242,2.1213202476501465,
4.2750,0.0508,0.4652,0.8951,-0.1122,0.1758,-0.0841,0.0318,0.0000,-0.0049,-30.9000,-10.3800,-33.3000,10240.0000,32.85707486,35.27914242,2.1213202476501465,
4.2950,0.0508,0.4652,0.8951,-0.1122,0.1758,-0.0841,-0.0220,0.0367,-0.0391,-30.9000,-10.3800,-33.3000,10240.0000,32.85707486,35.27914242,2.1213202476501465,
4.3020,0.0508,0.4652,0.8951,-0.0558,0.0649,-0.0295,-0.0220,0.0367,-0.0391,-30.9000,-10.3800,-33.3000,10240.0000,32.85707486,35.27914242,2.1213202476501465,
4.3050,0.0469,0.4613,0.8990,-0.0558,0.0649,-0.0295,-0.0220,0.0367,-0.0391,-30.9000,-10.3800,-33.3000,10240.0000,32.85707486,35.27914242,2.1213202476501465,
4.3150,0.0469,0.4613,0.8990,-0.0558,0.0649,-0.0295,-0.0220,0.0367,-0.0391,-30.6000,-10.1400,-33.4800,10240.0000,32.85707486,35.27914242,2.1213202476501465,
4.3390,0.0430,0.4573,0.9030,-0.0558,0.0649,-0.0295,-0.0220,0.0367,-0.0391,-30.6000,-10.1400,-33.4800,10240.0000,32.85707486,35.27914242,2.1213202476501465,
4.6320,0.0430,0.4534,0.9108,-0.0558,0.0649,-0.0295,-0.0220,0.0367,-0.0391,-30.6000,-10.1400,-33.4800,10240.0000,32.85707486,35.27914242,2.1213202476501465,
4.6340,0.0430,0.4534,0.9030,-0.0558,0.0649,-0.0295,-0.0220,0.0367,-0.0391,-30.6000,-10.1400,-33.4800,10240.0000,32.85707486,35.27914242,2.1213202476501465,
4.6350,0.0430,0.4573,0.9030,-0.0558,0.0649,-0.0295,-0.0220,0.0367,-0.0391,-30.6000,-10.1400,-33.4800,10240.0000,32.85707486,35.27914242,2.1213202476501465,
4.6360,0.0430,0.4573,0.9030,-0.0558,0.0649,-0.0295,-0.0220,0.0367,-0.0391,-30.4800,-10.0200,-33.4200,10240.0000,32.85707486,35.27914242,2.1213202476501465,
4.6380,0.0391,0.4613,0.9069,-0.0558,0.0649,-0.0295,-0.0220,0.0367,-0.0391,-30.4800,-10.0200,-33.4200,10240.0000,32.85707486,35.27914242,2.1213202476501465,
4.6390,0.0352,0.4573,0.9030,-0.0558,0.0649,-0.0295,-0.0220,0.0367,-0.0391,-30.4800,-10.0200,-33.4200,10240.0000,32.85707486,35.27914242,2.1213202476501465,
4.6410,0.0352,0.4613,0.8951,-0.0558,0.0649,-0.0295,-0.0220,0.0367,-0.0391,-30.4800,-10.0200,-33.4200,10240.0000,32.85707486,35.27914242,2.1213202476501465,
4.6420,0.0352,0.4691,0.8912,-0.0558,0.0649,-0.0295,-0.0220,0.0367,-0.0391,-30.4800,-10.0200,-33.4200,10240.0000,32.85707486,35.27914242,2.1213202476501465,
4.6440,0.0274,0.4769,0.8873,-0.0558,0.0649,-0.0295,-0.0220,0.0367,-0.0391,-30.4800,-10.0200,-33.4200,10240.0000,32.85707486,35.27914242,2.1213202476501465,
4.6450,0.0274,0.4769,0.8873,-0.0558,0.0649,-0.0295,-0.0244,0.0318,0.0220,-30.4800,-10.0200,-33.4200,10240.0000,32.85707486,35.27914242,2.1213202476501465,
4.6460,0.0274,0.4769,0.8873,-0.2415,0.1470,-0.0661,-0.0244,0.0318,0.0220,-30.4800,-10.0200,-33.4200,10240.0000,32.85707486,35.27914242,2.1213202476501465,
4.6480,0.0235,0.4730,0.9030,-0.2415,0.1470,-0.0661,-0.0244,0.0318,0.0220,-30.4800,-10.0200,-33.4200,10240.0000,32.85707486,35.27914242,2.1213202476501465,
4.6520,0.0508,0.4495,0.8990,-0.2415,0.1470,-0.0661,-0.0244,0.0318,0.0220,-30.4800,-10.0200,-33.4200,10240.0000,32.85707486,35.27914242,2.1213202476501465,
4.6720,0.0508,0.4456,0.9069,-0.2415,0.1470,-0.0661,-0.0244,0.0318,0.0220,-30.4800,-10.0200,-33.4200,10240.0000,32.85707486,35.27914242,2.1213202476501465,
4.6820,0.0508,0.4456,0.9069,-0.2415,0.1470,-0.0661,-0.0452,0.0428,0.0476,-30.4800,-10.0200,-33.4200,10240.0000,32.85707486,35.27914242,2.1213202476501465,
4.6830,0.0508,0.4456,0.9069,-0.0103,-0.1284,0.0661,-0.0452,0.0428,0.0476,-30.4800,-10.0200,-33.4200,10240.0000,32.85707486,35.27914242,2.1213202476501465,
4.6920,0.0508,0.4456,0.9108,-0.0103,-0.1284,0.0661,-0.0452,0.0428,0.0476,-30.4800,-10.0200,-33.4200,10240.0000,32.85707486,35.27914242,2.1213202476501465,
4.7090,0.0508,0.4456,0.9108,-0.0103,-0.1284,0.0661,-0.0452,0.0428,0.0476,-29.7600,-9.5400,-33.3600,10240.0000,32.85707486,35.27914242,2.1213202476501465,
4.7120,0.0469,0.4456,0.9186,-0.0103,-0.1284,0.0661,-0.0452,0.0428,0.0476,-29.7600,-9.5400,-33.3600,10240.0000,32.85707486,35.27914242,2.1213202476501465,
4.7320,0.0430,0.4456,0.9186,-0.0103,-0.1284,0.0661,-0.0452,0.0428,0.0476,-29.7600,-9.5400,-33.3600,10240.0000,32.85707486,35.27914242,2.1213202476501465,
4.7520,0.0391,0.4417,0.9225,-0.0103,-0.1284,0.0661,-0.0452,0.0428,0.0476,-29.7600,-9.5400,-33.3600,10240.0000,32.85707486,35.27914242,2.1213202476501465,
4.7720,0.0469,0.4456,0.9030,-0.0103,-0.1284,0.0661,-0.0452,0.0428,0.0476,-29.7600,-9.5400,-33.3600,10240.0000,32.85707486,35.27914242,2.1213202476501465,
4.7750,0.0469,0.4456,0.9030,-0.0103,-0.1284,0.0661,-0.0452,0.0428,0.0476,-29.8200,-9.4800,-33.4800,10240.0000,32.85707486,35.27914242,2.1213202476501465,
4.7920,0.0469,0.4495,0.9030,-0.0103,-0.1284,0.0661,-0.0452,0.0428,0.0476,-29.8200,-9.4800,-33.4800,10240.0000,32.85707486,35.27914242,2.1213202476501465,
4.8120,0.0430,0.4534,0.9069,-0.0103,-0.1284,0.0661,-0.0452,0.0428,0.0476,-29.8200,-9.4800,-33.4800,10240.0000,32.85707486,35.27914242,2.1213202476501465,
4.8320,0.0391,0.4534,0.9030,-0.0103,-0.1284,0.0661,-0.0452,0.0428,0.0476,-29.8200,-9.4800,-33.4800,10240.0000,32.85707486,35.27914242,2.1213202476501465,
4.8520,0.0352,0.4652,0.8951,-0.0103,-0.1284,0.0661,-0.0452,0.0428,0.0476,-29.8200,-9.4800,-33.4800,10240.0000,32.85707486,35.27914242,2.1213202476501465,
4.8720,0.0352,0.4613,0.8951,-0.0103,-0.1284,0.0661,-0.0452,0.0428,0.0476,-29.8200,-9.4800,-33.4800,10240.0000,32.85707486,35.27914242,2.1213202476501465,
4.8820,0.0352,0.4613,0.8951,-0.0103,-0.1284,0.0661,-0.0183,0.0452,0.0232,-29.8200,-9.4800,-33.4800,10240.0000,32.85707486,35.27914242,2.1213202476501465,
4.8840,0.0352,0.4613,0.8951,-0.1336,0.0565,-0.0208,-0.0183,0.0452,0.0232,-29.8200,-9.4800,-33.4800,10240.0000,32.85707486,35.27914242,2.1213202476501465,
4.9070,0.0352,0.4613,0.8951,-0.1336,0.0565,-0.0208,-0.0183,0.0452,0.0232,-29.6400,-9.4200,-33.4800,10240.0000,32.85707486,35.27914242,2.1213202476501465,
4.9170,0.0313,0.4613,0.8990,-0.1336,0.0565,-0.0208,-0.0183,0.0452,0.0232,-29.6400,-9.4200,-33.4800,10240.0000,32.85707486,35.27914242,2.1213202476501465,
4.9540,0.0274,0.4573,0.9108,-0.1336,0.0565,-0.0208,-0.0183,0.0452,0.0232,-29.6400,-9.4200,-33.4800,10240.0000,32.85707486,35.27914242,2.1213202476501465,
4.9720,0.0274,0.4534,0.9186,-0.1336,0.0565,-0.0208,-0.0183,0.0452,0.0232,-29.6400,-9.4200,-33.4800,10240.0000,32.85707486,35.27914242,2.1213202476501465,
4.9730,0.0274,0.4534,0.9186,-0.1336,0.0565,-0.0208,-0.0183,0.0452,0.0232,-29.5200,-9.7200,-33.3000,10240.0000,32.85707486,35.27914242,2.1213202476501465,
4.9920,0.0352,0.4456,0.9108,-0.1336,0.0565,-0.0208,-0.0183,0.0452,0.0232,-29.5200,-9.7200,-33.3000,10240.0000,32.85707486,35.27914242,2.1213202476501465,
5.0120,0.0391,0.4417,0.9069,-0.1336,0.0565,-0.0208,-0.0183,0.0452,0.0232,-29.5200,-9.7200,-33.3000,10240.0000,32.85707486,35.27914242,2.1213202476501465,
5.0320,0.0391,0.4378,0.9030,-0.1336,0.0565,-0.0208,-0.0183,0.0452,0.0232,-29.5200,-9.7200,-33.3000,10240.0000,32.85707486,35.27914242,2.1213202476501465,
5.0520,0.0469,0.4378,0.8990,-0.1336,0.0565,-0.0208,-0.0183,0.0452,0.0232,-29.5200,-9.7200,-33.3000,10240.0000,32.8545299,35.27966072,1.1180340051651,
5.0720,0.0469,0.4417,0.8951,-0.1336,0.0565,-0.0208,-0.0183,0.0452,0.0232,-29.5200,-9.7200,-33.3000,10240.0000,32.8545299,35.27966072,1.1180340051651,
5.0820,0.0469,0.4417,0.8951,-0.1336,0.0565,-0.0208,-0.0269,0.0098,0.0208,-29.5200,-9.7200,-33.3000,10240.0000,32.8545299,35.27966072,1.1180340051651,
5.0840,0.0469,0.4417,0.8951,-0.0158,-0.0944,0.0500,-0.0269,0.0098,0.0208,-29.5200,-9.7200,-33.3000,10240.0000,32.8545299,35.27966072,1.1180340051651,
5.0930,0.0469,0.4417,0.8912,-0.0158,-0.0944,0.0500,-0.0269,0.0098,0.0208,-29.5200,-9.7200,-33.3000,10240.0000,32.8545299,35.27966072,1.1180340051651,
5.1060,0.0469,0.4417,0.8912,-0.0158,-0.0944,0.0500,-0.0269,0.0098,0.0208,-29.2800,-9.9000,-33.0600,10240.0000,32.8545299,35.27966072,1.1180340051651,
5.1120,0.0508,0.4456,0.8951,-0.0158,-0.0944,0.0500,-0.0269,0.0098,0.0208,-29.2800,-9.9000,-33.0600,10240.0000,32.8545299,35.27966072,1.1180340051651,
5.1320,0.0469,0.4495,0.8990,-0.0158,-0.0944,0.0500,-0.0269,0.0098,0.0208,-29.2800,-9.9000,-33.0600,10240.0000,32.8545299,35.27966072,1.1180340051651,
5.1520,0.0313,0.4495,0.9186,-0.0158,-0.0944,0.0500,-0.0269,0.0098,0.0208,-29.2800,-9.9000,-33.0600,10240.0000,32.8545299,35.27966072,1.1180340051651,
5.1720,0.0313,0.4495,0.9186,-0.0158,-0.0944,0.0500,-0.0269,0.0098,0.0208,-29.2200,-10.0200,-33.0600,10240.0000,32.8545299,35.27966072,1.1180340051651,
5.1730,0.0274,0.4573,0.9186,-0.0158,-0.0944,0.0500,-0.0269,0.0098,0.0208,-29.2200,-10.0200,-33.0600,10240.0000,32.8545299,35.27966072,1.1180340051651,
5.1930,0.0313,0.4573,0.9186,-0.0158,-0.0944,0.0500,-0.0269,0.0098,0.0208,-29.2200,-10.0200,-33.0600,10240.0000,32.8545299,35.27966072,1.1180340051651,
5.5140,0.0313,0.4573,0.9147,-0.0158,-0.0944,0.0500,-0.0269,0.0098,0.0208,-29.2200,-10.0200,-33.0600,10240.0000,32.8545299,35.27966072,1.1180340051651,
5.5150,0.0391,0.4573,0.8990,-0.0158,-0.0944,0.0500,-0.0269,0.0098,0.0208,-29.2200,-10.0200,-33.0600,10240.0000,32.8545299,35.27966072,1.1180340051651,
5.5170,0.0469,0.4534,0.8873,-0.0158,-0.0944,0.0500,-0.0269,0.0098,0.0208,-29.2200,-10.0200,-33.0600,10240.0000,32.8545299,35.27966072,1.1180340051651,
5.5180,0.0586,0.4495,0.8795,-0.0158,-0.0944,0.0500,-0.0269,0.0098,0.0208,-29.2200,-10.0200,-33.0600,10240.0000,32.8545299,35.27966072,1.1180340051651,
5.5190,0.0586,0.4495,0.8795,-0.0158,-0.0944,0.0500,-0.0428,0.0110,0.0696,-29.2200,-10.0200,-33.0600,10240.0000,32.8545299,35.27966072,1.1180340051651,
5.5200,0.0586,0.4495,0.8795,0.0640,0.0421,-0.0234,-0.0428,0.0110,0.0696,-29.2200,-10.0200,-33.0600,10240.0000,32.8545299,35.27966072,1.1180340051651,
5.5220,0.0469,0.4417,0.9147,0.0640,0.0421,-0.0234,-0.0428,0.0110,0.0696,-29.2200,-10.0200,-33.0600,10240.0000,32.8545299,35.27966072,1.1180340051651,
5.5230,0.0469,0.4417,0.9147,0.0640,0.0421,-0.0234,-0.0428,0.0110,0.0696,-29.4600,-10.0800,-33.1200,10240.0000,32.8545299,35.27966072,1.1180340051651,
5.5240,0.0430,0.4300,0.9342,0.0640,0.0421,-0.0234,-0.0428,0.0110,0.0696,-29.4600,-10.0800,-33.1200,10240.0000,32.8545299,35.27966072,1.1180340051651,
5.5250,0.0430,0.4261,0.9342,0.0640,0.0421,-0.0234,-0.0428,0.0110,0.0696,-29.4600,-10.0800,-33.1200,10240.0000,32.8545299,35.27966072,1.1180340051651,
5.5270,0.0430,0.4339,0.9225,0.0640,0.0421,-0.0234,-0.0428,0.0110,0.0696,-29.4600,-10.0800,-33.1200,10240.0000,32.8545299,35.27966072,1.1180340051651,
5.5280,0.0430,0.4339,0.9225,0.0640,0.0421,-0.0234,-0.0428,0.0110,0.0696,-29.7600,-10.1400,-33.3000,10240.0000,32.8545299,35.27966072,1.1180340051651,
5.5320,0.0391,0.4495,0.9147,0.0640,0.0421,-0.0234,-0.0428,0.0110,0.0696,-29.7600,-10.1400,-33.3000,10240.0000,32.8545299,35.27966072,1.1180340051651,
5.5520,0.0469,0.4456,0.9069,0.0640,0.0421,-0.0234,-0.0428,0.0110,0.0696,-29.7600,-10.1400,-33.3000,10240.0000,32.8545299,35.27966072,1.1180340051651,
5.5680,0.0469,0.4456,0.9069,0.0640,0.0421,-0.0234,-0.0428,0.0110,0.0696,-30.0000,-10.0200,-33.4800,10240.0000,32.8545299,35.27966072,1.1180340051651,
5.5720,0.0508,0.4495,0.9030,0.0640,0.0421,-0.0234,-0.0428,0.0110,0.0696,-30.0000,-10.0200,-33.4800,10240.0000,32.8545299,35.27966072,1.1180340051651,
5.5920,0.0547,0.4495,0.8834,0.0640,0.0421,-0.0234,-0.0428,0.0110,0.0696,-30.0000,-10.0200,-33.4800,10240.0000,32.8545299,35.27966072,1.1180340051651,
5.6120,0.0586,0.4495,0.8756,0.0640,0.0421,-0.0234,-0.0428,0.0110,0.0696,-30.0000,-10.0200,-33.4800,10240.0000,32.8545299,35.27966072,1.1180340051651,
5.6350,0.0625,0.4417,0.8756,0.0640,0.0421,-0.0234,-0.0428,0.0110,0.0696,-30.0000,-10.0200,-33.4800,10240.0000,32.8545299,35.27966072,1.1180340051651,
5.6550,0.0665,0.4456,0.8795,0.0640,0.0421,-0.0234,-0.0428,0.0110,0.0696,-30.0000,-10.0200,-33.4800,10240.0000,32.8545299,35.27966072,1.1180340051651,
5.6740,0.0782,0.4456,0.8834,0.0640,0.0421,-0.0234,-0.0428,0.0110,0.0696,-30.0000,-10.0200,-33.4800,10240.0000,32.8545299,35.27966072,1.1180340051651,
5.6840,0.0782,0.4456,0.8834,0.0640,0.0421,-0.0234,-0.0452,-0.0061,0.0049,-30.0000,-10.0200,-33.4800,10240.0000,32.8545299,35.27966072,1.1180340051651,
5.6880,0.0782,0.4456,0.8834,0.2030,0.0179,-0.0225,-0.0452,-0.0061,0.0049,-30.0000,-10.0200,-33.4800,10240.0000,32.8545299,35.27966072,1.1180340051651,
5.6940,0.0782,0.4417,0.8912,0.2030,0.0179,-0.0225,-0.0452,-0.0061,0.0049,-30.0000,-10.0200,-33.4800,10240.0000,32.8545299,35.27966072,1.1180340051651,
5.7020,0.0782,0.4417,0.8912,0.2030,0.0179,-0.0225,-0.0452,-0.0061,0.0049,-30.2400,-10.0200,-33.4200,10240.0000,32.8545299,35.27966072,1.1180340051651,
5.7140,0.0782,0.4456,0.8912,0.2030,0.0179,-0.0225,-0.0452,-0.0061,0.0049,-30.2400,-10.0200,-33.4200,10240.0000,32.8545299,35.27966072,1.1180340051651,
5.7350,0.0704,0.4534,0.8912,0.2030,0.0179,-0.0225,-0.0452,-0.0061,0.0049,-30.2400,-10.0200,-33.4200,10240.0000,32.8545299,35.27966072,1.1180340051651,
5.7640,0.0704,0.4573,0.8951,0.2030,0.0179,-0.0225,-0.0452,-0.0061,0.0049,-30.2400,-10.0200,-33.4200,10240.0000,32.8545299,35.27966072,1.1180340051651,
5.7690,0.0704,0.4573,0.8951,0.2030,0.0179,-0.0225,-0.0452,-0.0061,0.0049,-30.3600,-9.7800,-33.7200,10240.0000,32.8545299,35.27966072,1.1180340051651,
5.7750,0.0665,0.4573,0.8912,0.2030,0.0179,-0.0225,-0.0452,-0.0061,0.0049,-30.3600,-9.7800,-33.7200,10240.0000,32.8545299,35.27966072,1.1180340051651,
5.7950,0.0665,0.4573,0.8873,0.2030,0.0179,-0.0225,-0.0452,-0.0061,0.0049,-30.3600,-9.7800,-33.7200,10240.0000,32.8545299,35.27966072,1.1180340051651,
5.8140,0.0665,0.4573,0.8912,0.2030,0.0179,-0.0225,-0.0452,-0.0061,0.0049,-30.3600,-9.7800,-33.7200,10240.0000,32.8545299,35.27966072,1.1180340051651,
5.8350,0.0665,0.4534,0.9069,0.2030,0.0179,-0.0225,-0.0452,-0.0061,0.0049,-30.3600,-9.7800,-33.7200,10240.0000,32.8545299,35.27966072,1.1180340051651,
5.8540,0.0665,0.4456,0.9186,0.2030,0.0179,-0.0225,-0.0452,-0.0061,0.0049,-30.3600,-9.7800,-33.7200,10240.0000,32.8545299,35.27966072,1.1180340051651,
5.8730,0.0665,0.4417,0.9225,0.2030,0.0179,-0.0225,-0.0452,-0.0061,0.0049,-30.3600,-9.7800,-33.7200,10240.0000,32.8545299,35.27966072,1.1180340051651,
5.8820,0.0665,0.4417,0.9225,0.2030,0.0179,-0.0225,-0.0660,-0.0293,-0.0086,-30.3600,-9.7800,-33.7200,10240.0000,32.8545299,35.27966072,1.1180340051651,
5.8830,0.0665,0.4417,0.9225,0.0218,-0.1051,0.0521,-0.0660,-0.0293,-0.0086,-30.3600,-9.7800,-33.7200,10240.0000,32.8545299,35.27966072,1.1180340051651,
5.8960,0.0625,0.4417,0.9225,0.0218,-0.1051,0.0521,-0.0660,-0.0293,-0.0086,-30.3600,-9.7800,-33.7200,10240.0000,32.8545299,35.27966072,1.1180340051651,
5.9000,0.0625,0.4417,0.9225,0.0218,-0.1051,0.0521,-0.0660,-0.0293,-0.0086,-30.7800,-9.3600,-33.9000,10240.0000,32.8545299,35.27966072,1.1180340051651,
5.9160,0.0625,0.4339,0.9264,0.0218,-0.1051,0.0521,-0.0660,-0.0293,-0.0086,-30.7800,-9.3600,-33.9000,10240.0000,32.8545299,35.27966072,1.1180340051651,
5.9370,0.0586,0.4378,0.9264,0.0218,-0.1051,0.0521,-0.0660,-0.0293,-0.0086,-30.7800,-9.3600,-33.9000,10240.0000,32.8545299,35.27966072,1.1180340051651,
5.9530,0.0586,0.4417,0.9225,0.0218,-0.1051,0.0521,-0.0660,-0.0293,-0.0086,-30.7800,-9.3600,-33.9000,10240.0000,32.8545299,35.27966072,1.1180340051651,
5.9650,0.0586,0.4417,0.9225,0.0218,-0.1051,0.0521,-0.0660,-0.0293,-0.0086,-31.0200,-9.1200,-33.9000,10240.0000,32.8545299,35.27966072,1.1180340051651,
5.9720,0.0586,0.4456,0.9147,0.0218,-0.1051,0.0521,-0.0660,-0.0293,-0.0086,-31.0200,-9.1200,-33.9000,10240.0000,32.8545299,35.27966072,1.1180340051651,
5.9920,0.0586,0.4417,0.9108,0.0218,-0.1051,0.0521,-0.0660,-0.0293,-0.0086,-31.0200,-9.1200,-33.9000,10240.0000,32.8545299,35.27966072,1.1180340051651,
6.0180,0.0625,0.4417,0.9030,0.0218,-0.1051,0.0521,-0.0660,-0.0293,-0.0086,-31.0200,-9.1200,-33.9000,10240.0000,32.8545299,35.27966072,1.1180340051651,
6.0340,0.0625,0.4495,0.8990,0.0218,-0.1051,0.0521,-0.0660,-0.0293,-0.0086,-31.0200,-9.1200,-33.9000,10240.0000,32.8545299,35.27966072,1.1180340051651,
6.0530,0.0547,0.4495,0.9069,0.0218,-0.1051,0.0521,-0.0660,-0.0293,-0.0086,-31.0200,-9.1200,-33.9000,10240.0000,32.8545299,35.27966072,1.1180340051651,
6.0750,0.0547,0.4534,0.9108,0.0218,-0.1051,0.0521,-0.0660,-0.0293,-0.0086,-31.0200,-9.1200,-33.9000,10240.0000,32.8545299,35.27966072,1.1180340051651,
6.0830,0.0547,0.4534,0.9108,0.0218,-0.1051,0.0521,-0.0147,0.0232,-0.0476,-31.0200,-9.1200,-33.9000,10240.0000,32.8545299,35.27966072,1.1180340051651,
6.4130,0.0547,0.4534,0.9108,-0.0933,0.0480,-0.0154,-0.0147,0.0232,-0.0476,-31.0200,-9.1200,-33.9000,10240.0000,32.8545299,35.27966072,1.1180340051651,
6.4140,0.0625,0.4495,0.9030,-0.0933,0.0480,-0.0154,-0.0147,0.0232,-0.0476,-31.0200,-9.1200,-33.9000,10240.0000,32.8545299,35.27966072,1.1180340051651,
6.4150,0.0625,0.4495,0.9030,-0.0933,0.0480,-0.0154,-0.0147,0.0232,-0.0476,-31.1400,-8.8200,-34.2000,10240.0000,32.8545299,35.27966072,1.1180340051651,
6.4170,0.0704,0.4534,0.8990,-0.0933,0.0480,-0.0154,-0.0147,0.0232,-0.0476,-31.1400,-8.8200,-34.2000,10240.0000,32.8545299,35.27966072,1.1180340051651,
6.4180,0.0665,0.4495,0.9030,-0.0933,0.0480,-0.0154,-0.0147,0.0232,-0.0476,-31.1400,-8.8200,-34.2000,10240.0000,32.8545299,35.27966072,1.1180340051651,
6.4190,0.0625,0.4495,0.9069,-0.0933,0.0480,-0.0154,-0.0147,0.0232,-0.0476,-31.1400,-8.8200,-34.2000,10240.0000,32.8545299,35.27966072,1.1180340051651,
6.4210,0.0625,0.4495,0.9069,-0.0933,0.0480,-0.0154,-0.0147,0.0232,-0.0476,-31.3800,-8.7000,-34.0800,10240.0000,32.8545299,35.27966072,1.1180340051651,
6.4220,0.0665,0.4534,0.8990,-0.0933,0.0480,-0.0154,-0.0147,0.0232,-0.0476,-31.3800,-8.7000,-34.0800,10240.0000,32.8545299,35.27966072,1.1180340051651,
6.4230,0.0665,0.4456,0.8951,-0.0933,0.0480,-0.0154,-0.0147,0.0232,-0.0476,-31.3800,-8.7000,-34.0800,10240.0000,32.8545299,35.27966072,1.1180340051651,
6.4240,0.0665,0.4456,0.8990,-0.0933,0.0480,-0.0154,-0.0147,0.0232,-0.0476,-31.3800,-8.7000,-34.0800,10240.0000,32.8545299,35.27966072,1.1180340051651,
6.4250,0.0625,0.4456,0.9030,-0.0933,0.0480,-0.0154,-0.0147,0.0232,-0.0476,-31.3800,-8.7000,-34.0800,10240.0000,32.8545299,35.27966072,1.1180340051651,
6.4270,0.0665,0.4456,0.9069,-0.0933,0.0480,-0.0154,-0.0147,0.0232,-0.0476,-31.3800,-8.7000,-34.0800,10240.0000,32.8545299,35.27966072,1.1180340051651,
6.4280,0.0665,0.4378,0.9186,-0.0933,0.0480,-0.0154,-0.0147,0.0232,-0.0476,-31.3800,-8.7000,-34.0800,10240.0000,32.8545299,35.27966072,1.1180340051651,
6.4320,0.0665,0.4495,0.8912,-0.0933,0.0480,-0.0154,-0.0147,0.0232,-0.0476,-31.3800,-8.7000,-34.0800,10240.0000,32.85446373,35.27959211,0.0,
6.4520,0.0625,0.4495,0.9030,-0.0933,0.0480,-0.0154,-0.0147,0.0232,-0.0476,-31.3800,-8.7000,-34.0800,10240.0000,32.85446373,35.27959211,0.0,
6.4720,0.0625,0.4495,0.9108,-0.0933,0.0480,-0.0154,-0.0147,0.0232,-0.0476,-31.3800,-8.7000,-34.0800,10240.0000,32.85446373,35.27959211,0.0,
6.4820,0.0625,0.4495,0.9108,-0.0933,0.0480,-0.0154,-0.0012,-0.0073,0.0244,-31.3800,-8.7000,-34.0800,10240.0000,32.85446373,35.27959211,0.0,
6.4830,0.0625,0.4495,0.9108,-0.0172,0.0018,0.0025,-0.0012,-0.0073,0.0244,-31.3800,-8.7000,-34.0800,10240.0000,32.85446373,35.27959211,0.0,
6.4920,0.0704,0.4456,0.9147,-0.0172,0.0018,0.0025,-0.0012,-0.0073,0.0244,-31.3800,-8.7000,-34.0800,10240.0000,32.85446373,35.27959211,0.0,
6.4940,0.0704,0.4456,0.9147,-0.0172,0.0018,0.0025,-0.0012,-0.0073,0.0244,-30.8400,-8.8800,-33.3000,10240.0000,32.85446373,35.27959211,0.0,
6.5120,0.0743,0.4456,0.9030,-0.0172,0.0018,0.0025,-0.0012,-0.0073,0.0244,-30.8400,-8.8800,-33.3000,10240.0000,32.85446373,35.27959211,0.0,
6.5320,0.0743,0.4495,0.8990,-0.0172,0.0018,0.0025,-0.0012,-0.0073,0.0244,-30.8400,-8.8800,-33.3000,10240.0000,32.85446373,35.27959211,0.0,
6.5520,0.0782,0.4456,0.8990,-0.0172,0.0018,0.0025,-0.0012,-0.0073,0.0244,-30.8400,-8.8800,-33.3000,10240.0000,32.85446373,35.27959211,0.0,
6.5640,0.0782,0.4456,0.8990,-0.0172,0.0018,0.0025,-0.0012,-0.0073,0.0244,-30.9000,-8.8200,-33.1800,10240.0000,32.85446373,35.27959211,0.0,
6.5730,0.0743,0.4417,0.9030,-0.0172,0.0018,0.0025,-0.0012,-0.0073,0.0244,-30.9000,-8.8200,-33.1800,10240.0000,32.85446373,35.27959211,0.0,
6.5940,0.0743,0.4456,0.9030,-0.0172,0.0018,0.0025,-0.0012,-0.0073,0.0244,-30.9000,-8.8200,-33.1800,10240.0000,32.85446373,35.27959211,0.0,
6.6140,0.0743,0.4417,0.8990,-0.0172,0.0018,0.0025,-0.0012,-0.0073,0.0244,-30.9000,-8.8200,-33.1800,10240.0000,32.85446373,35.27959211,0.0,
6.6350,0.0743,0.4417,0.8951,-0.0172,0.0018,0.0025,-0.0012,-0.0073,0.0244,-30.9000,-8.8200,-33.1800,10240.0000,32.85446373,35.27959211,0.0,
6.6540,0.0782,0.4456,0.8951,-0.0172,0.0018,0.0025,-0.0012,-0.0073,0.0244,-30.9000,-8.8200,-33.1800,10240.0000,32.85446373,35.27959211,0.0,
6.6740,0.0821,0.4456,0.8990,-0.0172,0.0018,0.0025,-0.0012,-0.0073,0.0244,-30.9000,-8.8200,-33.1800,10240.0000,32.85446373,35.27959211,0.0,
6.6840,0.0821,0.4456,0.8990,-0.0172,0.0018,0.0025,0.0024,-0.0208,-0.0208,-30.9000,-8.8200,-33.1800,10240.0000,32.85446373,35.27959211,0.0,
6.6880,0.0821,0.4456,0.8990,0.1580,-0.0042,-0.0090,0.0024,-0.0208,-0.0208,-30.9000,-8.8200,-33.1800,10240.0000,32.85446373,35.27959211,0.0,
6.6950,0.0821,0.4456,0.8990,0.1580,-0.0042,-0.0090,0.0024,-0.0208,-0.0208,-30.9600,-8.9400,-33.3000,10240.0000,32.85446373,35.27959211,0.0,
6.7080,0.0782,0.4456,0.9108,0.1580,-0.0042,-0.0090,0.0024,-0.0208,-0.0208,-30.9600,-8.9400,-33.3000,10240.0000,32.85446373,35.27959211,0.0,
6.7150,0.0704,0.4456,0.9069,0.1580,-0.0042,-0.0090,0.0024,-0.0208,-0.0208,-30.9600,-8.9400,-33.3000,10240.0000,32.85446373,35.27959211,0.0,
6.7350,0.0743,0.4456,0.9030,0.1580,-0.0042,-0.0090,0.0024,-0.0208,-0.0208,-30.9600,-8.9400,-33.3000,10240.0000,32.85446373,35.27959211,0.0,
6.7540,0.0743,0.4495,0.8951,0.1580,-0.0042,-0.0090,0.0024,-0.0208,-0.0208,-30.9600,-8.9400,-33.3000,10240.0000,32.85446373,35.27959211,0.0,
6.7620,0.0743,0.4495,0.8951,0.1580,-0.0042,-0.0090,0.0024,-0.0208,-0.0208,-31.0200,-8.9400,-33.3600,10240.0000,32.85446373,35.27959211,0.0,
6.7740,0.0743,0.4534,0.8951,0.1580,-0.0042,-0.0090,0.0024,-0.0208,-0.0208,-31.0200,-8.9400,-33.3600,10240.0000,32.85446373,35.27959211,0.0,
6.7950,0.0704,0.4534,0.9030,0.1580,-0.0042,-0.0090,0.0024,-0.0208,-0.0208,-31.0200,-8.9400,-33.3600,10240.0000,32.85446373,35.27959211,0.0,
6.8140,0.0704,0.4495,0.9069,0.1580,-0.0042,-0.0090,0.0024,-0.0208,-0.0208,-31.0200,-8.9400,-33.3600,10240.0000,32.85446373,35.27959211,0.0,
6.8360,0.0743,0.4534,0.9069,0.1580,-0.0042,-0.0090,0.0024,-0.0208,-0.0208,-31.0200,-8.9400,-33.3600,10240.0000,32.85446373,35.27959211,0.0,
6.8540,0.0743,0.4534,0.9108,0.1580,-0.0042,-0.0090,0.0024,-0.0208,-0.0208,-31.0200,-8.9400,-33.3600,10240.0000,32.85446373,35.27959211,0.0,
6.8720,0.0704,0.4495,0.9147,0.1580,-0.0042,-0.0090,0.0024,-0.0208,-0.0208,-31.0200,-8.9400,-33.3600,10240.0000,32.85446373,35.27959211,0.0,
6.8820,0.0704,0.4495,0.9147,0.1580,-0.0042,-0.0090,-0.0134,0.0403,0.0000,-31.0200,-8.9400,-33.3600,10240.0000,32.85446373,35.27959211,0.0,
6.8830,0.0704,0.4495,0.9147,0.0296,-0.0326,0.0155,-0.0134,0.0403,0.0000,-31.0200,-8.9400,-33.3600,10240.0000,32.85446373,35.27959211,0.0,
6.8970,0.0704,0.4495,0.9147,0.0296,-0.0326,0.0155,-0.0134,0.0403,0.0000,-31.0800,-9.0600,-33.1200,10240.0000,32.85446373,35.27959211,0.0,
6.8980,0.0743,0.4495,0.9108,0.0296,-0.0326,0.0155,-0.0134,0.0403,0.0000,-31.0800,-9.0600,-33.1200,10240.0000,32.85446373,35.27959211,0.0,
6.9130,0.0782,0.4495,0.8990,0.0296,-0.0326,0.0155,-0.0134,0.0403,0.0000,-31.0800,-9.0600,-33.1200,10240.0000,32.85446373,35.27959211,0.0,
6.9330,0.0782,0.4573,0.8951,0.0296,-0.0326,0.0155,-0.0134,0.0403,0.0000,-31.0800,-9.0600,-33.1200,10240.0000,32.85446373,35.27959211,0.0,
7.2290,0.0743,0.4573,0.8990,0.0296,-0.0326,0.0155,-0.0134,0.0403,0.0000,-31.0800,-9.0600,-33.1200,10240.0000,32.85446373,35.27959211,0.0,
7.2310,0.0743,0.4573,0.8990,0.0296,-0.0326,0.0155,-0.0134,0.0403,0.0000,-31.2600,-9.1800,-33.2400,10240.0000,32.85446373,35.27959211,0.0,
7.2320,0.0743,0.4534,0.8912,0.0296,-0.0326,0.0155,-0.0134,0.0403,0.0000,-31.2600,-9.1800,-33.2400,10240.0000,32.85446373,35.27959211,0.0,
7.2330,0.0743,0.4495,0.8873,0.0296,-0.0326,0.0155,-0.0134,0.0403,0.0000,-31.2600,-9.1800,-33.2400,10240.0000,32.85446373,35.27959211,0.0,
7.2340,0.0704,0.4495,0.8912,0.0296,-0.0326,0.0155,-0.0134,0.0403,0.0000,-31.2600,-9.1800,-33.2400,10240.0000,32.85446373,35.27959211,0.0,
7.2350,0.0704,0.4495,0.8951,0.0296,-0.0326,0.0155,-0.0134,0.0403,0.0000,-31.2600,-9.1800,-33.2400,10240.0000,32.85446373,35.27959211,0.0,
7.2360,0.0743,0.4456,0.8990,0.0296,-0.0326,0.0155,-0.0134,0.0403,0.0000,-31.2600,-9.1800,-33.2400,10240.0000,32.85446373,35.27959211,0.0,
7.2370,0.0743,0.4495,0.8951,0.0296,-0.0326,0.0155,-0.0134,0.0403,0.0000,-31.2600,-9.1800,-33.2400,10240.0000,32.85446373,35.27959211,0.0,
7.2380,0.0743,0.4495,0.8951,0.0296,-0.0326,0.0155,-0.0049,-0.0098,-0.0147,-31.2600,-9.1800,-33.2400,10240.0000,32.85446373,35.27959211,0.0,
7.2390,0.0743,0.4495,0.8951,0.0610,0.0267,-0.0168,-0.0049,-0.0098,-0.0147,-31.2600,-9.1800,-33.2400,10240.0000,32.85446373,35.27959211,0.0,
7.2400,0.0743,0.4495,0.8951,0.0610,0.0267,-0.0168,-0.0049,-0.0098,-0.0147,-31.6800,-9.1200,-33.7200,10240.0000,32.85446373,35.27959211,0.0,
7.2410,0.0665,0.4495,0.9069,0.0610,0.0267,-0.0168,-0.0049,-0.0098,-0.0147,-31.6800,-9.1200,-33.7200,10240.0000,32.85446373,35.27959211,0.0,
7.2420,0.0782,0.4534,0.8951,0.0610,0.0267,-0.0168,-0.0049,-0.0098,-0.0147,-31.6800,-9.1200,-33.7200,10240.0000,32.85446373,35.27959211,0.0,
7.2510,0.0743,0.4573,0.8990,0.0610,0.0267,-0.0168,-0.0049,-0.0098,-0.0147,-31.6800,-9.1200,-33.7200,10240.0000,32.85446373,35.27959211,0.0,
7.2720,0.0743,0.4573,0.9030,0.0610,0.0267,-0.0168,-0.0049,-0.0098,-0.0147,-31.6800,-9.1200,-33.7200,10240.0000,32.85446373,35.27959211,0.0,
7.2820,0.0743,0.4573,0.9030,0.0610,0.0267,-0.0168,-0.0037,0.0513,0.0061,-31.6800,-9.1200,-33.7200,10240.0000,32.85446373,35.27959211,0.0,
7.2830,0.0743,0.4573,0.9030,0.0397,0.0455,-0.0251,-0.0037,0.0513,0.0061,-31.6800,-9.1200,-33.7200,10240.0000,32.85446373,35.27959211,0.0,
7.2910,0.0743,0.4573,0.9030,0.0397,0.0455,-0.0251,-0.0037,0.0513,0.0061,-31.5600,-9.3600,-33.1800,10240.0000,32.85446373,35.27959211,0.0,
7.2930,0.0782,0.4495,0.9030,0.0397,0.0455,-0.0251,-0.0037,0.0513,0.0061,-31.5600,-9.3600,-33.1800,10240.0000,32.85446373,35.27959211,0.0,
7.3120,0.0743,0.4534,0.9030,0.0397,0.0455,-0.0251,-0.0037,0.0513,0.0061,-31.5600,-9.3600,-33.1800,10240.0000,32.85446373,35.27959211,0.0,
7.3320,0.0704,0.4495,0.9069,0.0397,0.0455,-0.0251,-0.0037,0.0513,0.0061,-31.5600,-9.3600,-33.1800,10240.0000,32.85446373,35.27959211,0.0,
7.3520,0.0743,0.4534,0.9030,0.0397,0.0455,-0.0251,-0.0037,0.0513,0.0061,-31.5600,-9.3600,-33.1800,10240.0000,32.85446373,35.27959211,0.0,
7.3570,0.0743,0.4534,0.9030,0.0397,0.0455,-0.0251,-0.0037,0.0513,0.0061,-31.6200,-9.4200,-33.1200,10240.0000,32.85446373,35.27959211,0.0,
7.3720,0.0743,0.4495,0.8912,0.0397,0.0455,-0.0251,-0.0037,0.0513,0.0061,-31.6200,-9.4200,-33.1200,10240.0000,32.85446373,35.27959211,0.0,
7.4120,0.0743,0.4495,0.8951,0.0397,0.0455,-0.0251,-0.0037,0.0513,0.0061,-31.6200,-9.4200,-33.1200,10240.0000,32.85446373,35.27959211,0.0,
7.4320,0.0704,0.4495,0.8990,0.0397,0.0455,-0.0251,-0.0037,0.0513,0.0061,-31.6200,-9.4200,-33.1200,10240.0000,32.85446373,35.27959211,0.0,
7.4530,0.0743,0.4534,0.8834,0.0397,0.0455,-0.0251,-0.0037,0.0513,0.0061,-31.6200,-9.4200,-33.1200,10240.0000,32.85446373,35.27959211,0.0,
7.4830,0.0743,0.4534,0.8834,0.0397,0.0455,-0.0251,-0.0122,0.0073,0.0000,-31.6200,-9.4200,-33.1200,10240.0000,32.85446373,35.27959211,0.0,
7.4850,0.0743,0.4534,0.8834,0.0420,0.0677,-0.0372,-0.0122,0.0073,0.0000,-31.6200,-9.4200,-33.1200,10240.0000,32.85446373,35.27959211,0.0,
7.4920,0.0743,0.4534,0.8834,0.0420,0.0677,-0.0372,-0.0122,0.0073,0.0000,-31.2600,-9.6000,-32.8200,10240.0000,32.85446373,35.27959211,0.0,
7.4940,0.0665,0.4534,0.8912,0.0420,0.0677,-0.0372,-0.0122,0.0073,0.0000,-31.2600,-9.6000,-32.8200,10240.0000,32.85446373,35.27959211,0.0,
7.5180,0.0625,0.4495,0.9030,0.0420,0.0677,-0.0372,-0.0122,0.0073,0.0000,-31.2600,-9.6000,-32.8200,10240.0000,32.85446373,35.27959211,0.0,
7.5350,0.0704,0.4495,0.9030,0.0420,0.0677,-0.0372,-0.0122,0.0073,0.0000,-31.2600,-9.6000,-32.8200,10240.0000,32.85446373,35.27959211,0.0,
7.5550,0.0743,0.4456,0.9030,0.0420,0.0677,-0.0372,-0.0122,0.0073,0.0000,-31.2600,-9.6000,-32.8200,10240.0000,32.85446373,35.27959211,0.0,
7.5590,0.0743,0.4456,0.9030,0.0420,0.0677,-0.0372,-0.0122,0.0073,0.0000,-31.0800,-9.7800,-32.8200,10240.0000,32.85446373,35.27959211,0.0,
7.5740,0.0743,0.4534,0.8990,0.0420,0.0677,-0.0372,-0.0122,0.0073,0.0000,-31.0800,-9.7800,-32.8200,10240.0000,32.85446373,35.27959211,0.0,
7.5950,0.0821,0.4495,0.8912,0.0420,0.0677,-0.0372,-0.0122,0.0073,0.0000,-31.0800,-9.7800,-32.8200,10240.0000,32.85446373,35.27959211,0.0,
7.6140,0.0860,0.4613,0.8951,0.0420,0.0677,-0.0372,-0.0122,0.0073,0.0000,-31.0800,-9.7800,-32.8200,10240.0000,32.85446373,35.27959211,0.0,
7.6350,0.0899,0.4613,0.9030,0.0420,0.0677,-0.0372,-0.0122,0.0073,0.0000,-31.0800,-9.7800,-32.8200,10240.0000,32.85446373,35.27959211,0.0,
7.6540,0.0899,0.4613,0.9186,0.0420,0.0677,-0.0372,-0.0122,0.0073,0.0000,-31.0800,-9.7800,-32.8200,10240.0000,32.85446373,35.27959211,0.0,
7.6740,0.0782,0.4573,0.9577,0.0420,0.0677,-0.0372,-0.0122,0.0073,0.0000,-31.0800,-9.7800,-32.8200,10240.0000,32.85446373,35.27959211,0.0,
7.6840,0.0782,0.4573,0.9577,0.0420,0.0677,-0.0372,0.0342,0.0403,-0.0770,-31.0800,-9.7800,-32.8200,10240.0000,32.85446373,35.27959211,0.0,
7.6880,0.0782,0.4573,0.9577,0.0754,-0.1925,0.0894,0.0342,0.0403,-0.0770,-31.0800,-9.7800,-32.8200,10240.0000,32.85446373,35.27959211,0.0,
7.6940,0.0782,0.4573,0.9577,0.0754,-0.1925,0.0894,0.0342,0.0403,-0.0770,-31.1400,-9.8400,-32.8800,10240.0000,32.85446373,35.27959211,0.0,
7.6980,0.0704,0.4613,0.9694,0.0754,-0.1925,0.0894,0.0342,0.0403,-0.0770,-31.1400,-9.8400,-32.8800,10240.0000,32.85446373,35.27959211,0.0,
7.7140,0.0665,0.4730,0.9616,0.0754,-0.1925,0.0894,0.0342,0.0403,-0.0770,-31.1400,-9.8400,-32.8800,10240.0000,32.85446373,35.27959211,0.0,
7.7350,0.0547,0.4808,0.9577,0.0754,-0.1925,0.0894,0.0342,0.0403,-0.0770,-31.1400,-9.8400,-32.8800,10240.0000,32.85446373,35.27959211,0.0,
7.7550,0.0469,0.4691,0.9420,0.0754,-0.1925,0.0894,0.0342,0.0403,-0.0770,-31.1400,-9.8400,-32.8800,10240.0000,32.85446373,35.27959211,0.0,
7.7590,0.0469,0.4691,0.9420,0.0754,-0.1925,0.0894,0.0342,0.0403,-0.0770,-31.0200,-9.8400,-32.8800,10240.0000,32.85446373,35.27959211,0.0,
7.7740,0.0430,0.4613,0.9225,0.0754,-0.1925,0.0894,0.0342,0.0403,-0.0770,-31.0200,-9.8400,-32.8800,10240.0000,32.85446373,35.27959211,0.0,
8.0820,0.0430,0.4652,0.8912,0.0754,-0.1925,0.0894,0.0342,0.0403,-0.0770,-31.0200,-9.8400,-32.8800,10240.0000,32.85446373,35.27959211,0.0,
8.0830,0.0547,0.4652,0.8404,0.0754,-0.1925,0.0894,0.0342,0.0403,-0.0770,-31.0200,-9.8400,-32.8800,10240.0000,32.85446373,35.27959211,0.0,
8.0840,0.0625,0.4652,0.8365,0.0754,-0.1925,0.0894,0.0342,0.0403,-0.0770,-31.0200,-9.8400,-32.8800,10240.0000,32.85446373,35.27959211,0.0,
8.0850,0.0547,0.4691,0.8482,0.0754,-0.1925,0.0894,0.0342,0.0403,-0.0770,-31.0200,-9.8400,-32.8800,10240.0000,32.85446373,35.27959211,0.0,
8.0860,0.0508,0.4730,0.8600,0.0754,-0.1925,0.0894,0.0342,0.0403,-0.0770,-31.0200,-9.8400,-32.8800,10240.0000,32.85446373,35.27959211,0.0,
8.0870,0.0508,0.4730,0.8600,0.0754,-0.1925,0.0894,0.0770,0.1246,0.0220,-31.0200,-9.8400,-32.8800,10240.0000,32.85446373,35.27959211,0.0,
8.0880,0.0508,0.4730,0.8600,0.0011,0.1575,-0.0851,0.0770,0.1246,0.0220,-31.0200,-9.8400,-32.8800,10240.0000,32.85446373,35.27959211,0.0,
8.0890,0.0508,0.4730,0.8600,0.0011,0.1575,-0.0851,0.0770,0.1246,0.0220,-31.0800,-10.0800,-32.9400,10240.0000,32.85446373,35.27959211,0.0,
8.0900,0.0469,0.4769,0.8678,0.0011,0.1575,-0.0851,0.0770,0.1246,0.0220,-31.0800,-10.0800,-32.9400,10240.0000,32.85446373,35.27959211,0.0,
8.0910,0.0469,0.4769,0.8639,0.0011,0.1575,-0.0851,0.0770,0.1246,0.0220,-31.0800,-10.0800,-32.9400,10240.0000,32.85446373,35.27959211,0.0,
8.0920,0.0508,0.4847,0.8560,0.0011,0.1575,-0.0851,0.0770,0.1246,0.0220,-31.0800,-10.0800,-32.9400,10240.0000,32.85446373,35.27959211,0.0,
8.0930,0.0508,0.4886,0.8482,0.0011,0.1575,-0.0851,0.0770,0.1246,0.0220,-31.0800,-10.0800,-32.9400,10240.0000,32.85446373,35.27959211,0.0,
8.0940,0.0508,0.4886,0.8482,0.0011,0.1575,-0.0851,-0.0525,0.0513,0.0941,-31.0800,-10.0800,-32.9400,10240.0000,32.85446373,35.27959211,0.0,
8.0950,0.0508,0.4886,0.8482,0.0465,0.0843,-0.0484,-0.0525,0.0513,0.0941,-31.0800,-10.0800,-32.9400,10240.0000,32.85446373,35.27959211,0.0,
8.0960,0.0508,0.4886,0.8482,0.0465,0.0843,-0.0484,-0.0525,0.0513,0.0941,-30.8400,-10.5000,-33.1200,10240.0000,32.85446373,35.27959211,0.0,
8.0970,0.0547,0.4808,0.8951,0.0465,0.0843,-0.0484,-0.0525,0.0513,0.0941,-30.8400,-10.5000,-33.1200,10240.0000,32.85446373,35.27959211,0.0,
8.1110,0.0586,0.4847,0.8873,0.0465,0.0843,-0.0484,-0.0525,0.0513,0.0941,-30.8400,-10.5000,-33.1200,10240.0000,32.85447029,35.27948994,0.0,
8.1310,0.0586,0.4925,0.8834,0.0465,0.0843,-0.0484,-0.0525,0.0513,0.0941,-30.8400,-10.5000,-33.1200,10240.0000,32.85447029,35.27948994,0.0,
8.1500,0.0586,0.4925,0.8834,0.0465,0.0843,-0.0484,-0.0525,0.0513,0.0941,-30.6600,-10.8600,-33.0000,10240.0000,32.85447029,35.27948994,0.0,
8.1510,0.0625,0.4925,0.8795,0.0465,0.0843,-0.0484,-0.0525,0.0513,0.0941,-30.6600,-10.8600,-33.0000,10240.0000,32.85447029,35.27948994,0.0,
8.1730,0.0665,0.4925,0.8834,0.0465,0.0843,-0.0484,-0.0525,0.0513,0.0941,-30.6600,-10.8600,-33.0000,10240.0000,32.85447029,35.27948994,0.0,
8.1940,0.0665,0.4964,0.8873,0.0465,0.0843,-0.0484,-0.0525,0.0513,0.0941,-30.6600,-10.8600,-33.0000,10240.0000,32.85447029,35.27948994,0.0,
8.2130,0.0625,0.4925,0.8873,0.0465,0.0843,-0.0484,-0.0525,0.0513,0.0941,-30.6600,-10.8600,-33.0000,10240.0000,32.85447029,35.27948994,0.0,
8.2330,0.0665,0.4925,0.8873,0.0465,0.0843,-0.0484,-0.0525,0.0513,0.0941,-30.6600,-10.8600,-33.0000,10240.0000,32.85447029,35.27948994,0.0,
8.2530,0.0625,0.4925,0.8873,0.0465,0.0843,-0.0484,-0.0525,0.0513,0.0941,-30.6600,-10.8600,-33.0000,10240.0000,32.85447029,35.27948994,0.0,
8.2730,0.0508,0.4925,0.8912,0.0465,0.0843,-0.0484,-0.0525,0.0513,0.0941,-30.6600,-10.8600,-33.0000,10240.0000,32.85447029,35.27948994,0.0,
8.2840,0.0508,0.4925,0.8912,0.0465,0.0843,-0.0484,0.0073,0.0599,0.0024,-30.6600,-10.8600,-33.0000,10240.0000,32.85447029,35.27948994,0.0,
8.2870,0.0508,0.4925,0.8912,0.0561,0.1321,-0.0746,0.0073,0.0599,0.0024,-30.6600,-10.8600,-33.0000,10240.0000,32.85447029,35.27948994,0.0,
8.2900,0.0508,0.4925,0.8912,0.0561,0.1321,-0.0746,0.0073,0.0599,0.0024,-30.9000,-11.1000,-33.0600,10240.0000,32.85447029,35.27948994,0.0,
8.2980,0.0469,0.4886,0.8951,0.0561,0.1321,-0.0746,0.0073,0.0599,0.0024,-30.9000,-11.1000,-33.0600,10240.0000,32.85447029,35.27948994,0.0,
8.3140,0.0508,0.4886,0.8912,0.0561,0.1321,-0.0746,0.0073,0.0599,0.0024,-30.9000,-11.1000,-33.0600,10240.0000,32.85447029,35.27948994,0.0,
8.3340,0.0547,0.4847,0.8795,0.0561,0.1321,-0.0746,0.0073,0.0599,0.0024,-30.9000,-11.1000,-33.0600,10240.0000,32.85447029,35.27948994,0.0,
8.3590,0.0547,0.4847,0.8795,0.0561,0.1321,-0.0746,0.0073,0.0599,0.0024,-30.9000,-11.2800,-33.0000,10240.0000,32.85447029,35.27948994,0.0,
8.3630,0.0547,0.4808,0.8795,0.0561,0.1321,-0.0746,0.0073,0.0599,0.0024,-30.9000,-11.2800,-33.0000,10240.0000,32.85447029,35.27948994,0.0,
8.3740,0.0547,0.4847,0.8756,0.0561,0.1321,-0.0746,0.0073,0.0599,0.0024,-30.9000,-11.2800,-33.0000,10240.0000,32.85447029,35.27948994,0.0,
8.3960,0.0508,0.4886,0.8717,0.0561,0.1321,-0.0746,0.0073,0.0599,0.0024,-30.9000,-11.2800,-33.0000,10240.0000,32.85447029,35.27948994,0.0,
8.4150,0.0547,0.4847,0.8717,0.0561,0.1321,-0.0746,0.0073,0.0599,0.0024,-30.9000,-11.2800,-33.0000,10240.0000,32.85447029,35.27948994,0.0,
8.4340,0.0508,0.4808,0.8795,0.0561,0.1321,-0.0746,0.0073,0.0599,0.0024,-30.9000,-11.2800,-33.0000,10240.0000,32.85447029,35.27948994,0.0,
8.4540,0.0469,0.4808,0.8873,0.0561,0.1321,-0.0746,0.0073,0.0599,0.0024,-30.9000,-11.2800,-33.0000,10240.0000,32.85447029,35.27948994,0.0,
8.4740,0.0469,0.4847,0.8873,0.0561,0.1321,-0.0746,0.0073,0.0599,0.0024,-30.9000,-11.2800,-33.0000,10240.0000,32.85447029,35.27948994,0.0,
8.4850,0.0469,0.4847,0.8873,0.0561,0.1321,-0.0746,0.0073,0.0599,0.0024,-30.7200,-11.4600,-33.1800,10240.0000,32.85447029,35.27948994,0.0,
8.4880,0.0469,0.4847,0.8873,0.0561,0.1321,-0.0746,-0.0281,0.0538,-0.0073,-30.7200,-11.4600,-33.1800,10240.0000,32.85447029,35.27948994,0.0,
8.4940,0.0469,0.4847,0.8873,0.0332,0.0681,-0.0385,-0.0281,0.0538,-0.0073,-30.7200,-11.4600,-33.1800,10240.0000,32.85447029,35.27948994,0.0,
8.4980,0.0508,0.4847,0.8834,0.0332,0.0681,-0.0385,-0.0281,0.0538,-0.0073,-30.7200,-11.4600,-33.1800,10240.0000,32.85447029,35.27948994,0.0,
8.5150,0.0469,0.4886,0.8873,0.0332,0.0681,-0.0385,-0.0281,0.0538,-0.0073,-30.7200,-11.4600,-33.1800,10240.0000,32.85447029,35.27948994,0.0,
8.5340,0.0391,0.4886,0.8873,0.0332,0.0681,-0.0385,-0.0281,0.0538,-0.0073,-30.7200,-11.4600,-33.1800,10240.0000,32.85447029,35.27948994,0.0,
8.5550,0.0430,0.4808,0.8912,0.0332,0.0681,-0.0385,-0.0281,0.0538,-0.0073,-30.7200,-11.4600,-33.1800,10240.0000,32.85447029,35.27948994,0.0,
8.5740,0.0430,0.4847,0.8873,0.0332,0.0681,-0.0385,-0.0281,0.0538,-0.0073,-30.7200,-11.4600,-33.1800,10240.0000,32.85447029,35.27948994,0.0,
8.5950,0.0391,0.4808,0.8834,0.0332,0.0681,-0.0385,-0.0281,0.0538,-0.0073,-30.7200,-11.4600,-33.1800,10240.0000,32.85447029,35.27948994,0.0,
8.6150,0.0391,0.4808,0.8912,0.0332,0.0681,-0.0385,-0.0281,0.0538,-0.0073,-30.7200,-11.4600,-33.1800,10240.0000,32.85447029,35.27948994,0.0,
8.9390,0.0469,0.4808,0.8795,0.0332,0.0681,-0.0385,-0.0281,0.0538,-0.0073,-30.7200,-11.4600,-33.1800,10240.0000,32.85447029,35.27948994,0.0,
8.9400,0.0469,0.4847,0.8795,0.0332,0.0681,-0.0385,-0.0281,0.0538,-0.0073,-30.7200,-11.4600,-33.1800,10240.0000,32.85447029,35.27948994,0.0,
8.9410,0.0469,0.4808,0.8834,0.0332,0.0681,-0.0385,-0.0281,0.0538,-0.0073,-30.7200,-11.4600,-33.1800,10240.0000,32.85447029,35.27948994,0.0,
8.9420,0.0469,0.4808,0.8834,0.0332,0.0681,-0.0385,-0.0281,0.0538,-0.0073,-30.4800,-11.7000,-33.2400,10240.0000,32.85447029,35.27948994,0.0,
8.9430,0.0469,0.4808,0.8834,0.0332,0.0681,-0.0385,-0.0208,-0.0318,0.0293,-30.4800,-11.7000,-33.2400,10240.0000,32.85447029,35.27948994,0.0,
8.9440,0.0469,0.4808,0.8834,0.0162,0.0261,-0.0157,-0.0208,-0.0318,0.0293,-30.4800,-11.7000,-33.2400,10240.0000,32.85447029,35.27948994,0.0,
8.9450,0.0469,0.4769,0.8873,0.0162,0.0261,-0.0157,-0.0208,-0.0318,0.0293,-30.4800,-11.7000,-33.2400,10240.0000,32.85447029,35.27948994,0.0,
8.9460,0.0547,0.4808,0.8834,0.0162,0.0261,-0.0157,-0.0208,-0.0318,0.0293,-30.4800,-11.7000,-33.2400,10240.0000,32.85447029,35.27948994,0.0,
8.9470,0.0586,0.4769,0.8834,0.0162,0.0261,-0.0157,-0.0208,-0.0318,0.0293,-30.4800,-11.7000,-33.2400,10240.0000,32.85447029,35.27948994,0.0,
8.9480,0.0586,0.4769,0.8834,0.0162,0.0261,-0.0157,-0.0208,-0.0318,0.0293,-30.7200,-11.7000,-33.2400,10240.0000,32.85447029,35.27948994,0.0,
8.9490,0.0547,0.4769,0.8873,0.0162,0.0261,-0.0157,-0.0208,-0.0318,0.0293,-30.7200,-11.7000,-33.2400,10240.0000,32.85447029,35.27948994,0.0,
8.9540,0.0547,0.4769,0.8912,0.0162,0.0261,-0.0157,-0.0208,-0.0318,0.0293,-30.7200,-11.7000,-33.2400,10240.0000,32.85447029,35.27948994,0.0,
8.9550,0.0547,0.4769,0.8912,0.0162,0.0261,-0.0157,-0.0208,-0.0318,0.0293,-30.3000,-11.2800,-33.3000,10240.0000,32.85447029,35.27948994,0.0,
8.9560,0.0586,0.4769,0.8912,0.0162,0.0261,-0.0157,-0.0208,-0.0318,0.0293,-30.3000,-11.2800,-33.3000,10240.0000,32.85447029,35.27948994,0.0,
8.9910,0.0547,0.4769,0.8873,0.0162,0.0261,-0.0157,-0.0208,-0.0318,0.0293,-30.3000,-11.2800,-33.3000,10240.0000,32.85447029,35.27948994,0.0,
9.0120,0.0547,0.4808,0.8951,0.0162,0.0261,-0.0157,-0.0208,-0.0318,0.0293,-30.3000,-11.2800,-33.3000,10240.0000,32.85447029,35.27948994,0.0,
9.0310,0.0547,0.4769,0.8990,0.0162,0.0261,-0.0157,-0.0208,-0.0318,0.0293,-30.3000,-11.2800,-33.3000,10240.0000,32.85447029,35.27948994,0.0,
9.0510,0.0508,0.4808,0.9030,0.0162,0.0261,-0.0157,-0.0208,-0.0318,0.0293,-30.3000,-11.2800,-33.3000,10240.0000,32.85447029,35.27948994,0.0,
9.0720,0.0469,0.4808,0.8951,0.0162,0.0261,-0.0157,-0.0208,-0.0318,0.0293,-30.3000,-11.2800,-33.3000,10240.0000,32.85442461,35.27945197,0.0,
9.0780,0.0469,0.4808,0.8951,0.0162,0.0261,-0.0157,-0.0208,-0.0318,0.0293,-29.9400,-10.9200,-33.1200,10240.0000,32.85442461,35.27945197,0.0,
9.0810,0.0469,0.4808,0.8951,0.0162,0.0261,-0.0157,0.0195,0.0086,-0.0110,-29.9400,-10.9200,-33.1200,10240.0000,32.85442461,35.27945197,0.0,
9.0820,0.0469,0.4808,0.8951,-0.0267,-0.0500,0.0272,0.0195,0.0086,-0.0110,-29.9400,-10.9200,-33.1200,10240.0000,32.85442461,35.27945197,0.0,
9.0910,0.0508,0.4808,0.8873,-0.0267,-0.0500,0.0272,0.0195,0.0086,-0.0110,-29.9400,-10.9200,-33.1200,10240.0000,32.85442461,35.27945197,0.0,
9.1120,0.0547,0.4808,0.8795,-0.0267,-0.0500,0.0272,0.0195,0.0086,-0.0110,-29.9400,-10.9200,-33.1200,10240.0000,32.85442461,35.27945197,0.0,
9.1320,0.0508,0.4769,0.8795,-0.0267,-0.0500,0.0272,0.0195,0.0086,-0.0110,-29.9400,-10.9200,-33.1200,10240.0000,32.85442461,35.27945197,0.0,
9.1440,0.0508,0.4769,0.8795,-0.0267,-0.0500,0.0272,0.0195,0.0086,-0.0110,-29.8800,-10.9800,-33.1200,10240.0000,32.85442461,35.27945197,0.0,
9.1520,0.0508,0.4808,0.8756,-0.0267,-0.0500,0.0272,0.0195,0.0086,-0.0110,-29.8800,-10.9800,-33.1200,10240.0000,32.85442461,35.27945197,0.0,
9.1720,0.0508,0.4847,0.8795,-0.0267,-0.0500,0.0272,0.0195,0.0086,-0.0110,-29.8800,-10.9800,-33.1200,10240.0000,32.85442461,35.27945197,0.0,
9.1910,0.0508,0.4808,0.8873,-0.0267,-0.0500,0.0272,0.0195,0.0086,-0.0110,-29.8800,-10.9800,-33.1200,10240.0000,32.85442461,35.27945197,0.0,
9.2110,0.0469,0.4769,0.8912,-0.0267,-0.0500,0.0272,0.0195,0.0086,-0.0110,-29.8800,-10.9800,-33.1200,10240.0000,32.85442461,35.27945197,0.0,
9.2310,0.0508,0.4808,0.8795,-0.0267,-0.0500,0.0272,0.0195,0.0086,-0.0110,-29.8800,-10.9800,-33.1200,10240.0000,32.85442461,35.27945197,0.0,
9.2510,0.0547,0.4808,0.8795,-0.0267,-0.0500,0.0272,0.0195,0.0086,-0.0110,-29.8800,-10.9800,-33.1200,10240.0000,32.85442461,35.27945197,0.0,
9.2730,0.0547,0.4847,0.8834,-0.0267,-0.0500,0.0272,0.0195,0.0086,-0.0110,-29.8800,-10.9800,-33.1200,10240.0000,32.85442461,35.27945197,0.0,
9.2780,0.0547,0.4847,0.8834,-0.0267,-0.0500,0.0272,0.0195,0.0086,-0.0110,-29.7600,-10.9800,-32.8800,10240.0000,32.85442461,35.27945197,0.0,
9.2840,0.0547,0.4847,0.8834,-0.0267,-0.0500,0.0272,0.0024,0.0037,0.0195,-29.7600,-10.9800,-32.8800,10240.0000,32.85442461,35.27945197,0.0,
9.2860,0.0547,0.4847,0.8834,0.0355,0.0107,-0.0095,0.0024,0.0037,0.0195,-29.7600,-10.9800,-32.8800,10240.0000,32.85442461,35.27945197,0.0,
9.2930,0.0547,0.4808,0.8873,0.0355,0.0107,-0.0095,0.0024,0.0037,0.0195,-29.7600,-10.9800,-32.8800,10240.0000,32.85442461,35.27945197,0.0,
9.3130,0.0547,0.4847,0.8873,0.0355,0.0107,-0.0095,0.0024,0.0037,0.0195,-29.7600,-10.9800,-32.8800,10240.0000,32.85442461,35.27945197,0.0,
9.3340,0.0547,0.4886,0.8912,0.0355,0.0107,-0.0095,0.0024,0.0037,0.0195,-29.7600,-10.9800,-32.8800,10240.0000,32.85442461,35.27945197,0.0,
9.3550,0.0547,0.4886,0.8912,0.0355,0.0107,-0.0095,0.0024,0.0037,0.0195,-29.7000,-11.1600,-32.7600,10240.0000,32.85442461,35.27945197,0.0,
9.3610,0.0586,0.4847,0.8912,0.0355,0.0107,-0.0095,0.0024,0.0037,0.0195,-29.7000,-11.1600,-32.7600,10240.0000,32.85442461,35.27945197,0.0,
9.3750,0.0547,0.4847,0.8873,0.0355,0.0107,-0.0095,0.0024,0.0037,0.0195,-29.7000,-11.1600,-32.7600,10240.0000,32.85442461,35.27945197,0.0,
9.3960,0.0586,0.4886,0.8873,0.0355,0.0107,-0.0095,0.0024,0.0037,0.0195,-29.7000,-11.1600,-32.7600,10240.0000,32.85442461,35.27945197,0.0,
9.4140,0.0547,0.4886,0.8873,0.0355,0.0107,-0.0095,0.0024,0.0037,0.0195,-29.7000,-11.1600,-32.7600,10240.0000,32.85442461,35.27945197,0.0,
9.4340,0.0469,0.4886,0.8912,0.0355,0.0107,-0.0095,0.0024,0.0037,0.0195,-29.7000,-11.1600,-32.7600,10240.0000,32.85442461,35.27945197,0.0,
9.4540,0.0508,0.4886,0.8912,0.0355,0.0107,-0.0095,0.0024,0.0037,0.0195,-29.7000,-11.1600,-32.7600,10240.0000,32.85442461,35.27945197,0.0,
9.4750,0.0547,0.4847,0.8873,0.0355,0.0107,-0.0095,0.0024,0.0037,0.0195,-29.7000,-11.1600,-32.7600,10240.0000,32.85442461,35.27945197,0.0,
9.4810,0.0547,0.4847,0.8873,0.0355,0.0107,-0.0095,0.0024,0.0037,0.0195,-30.0600,-10.8000,-32.8800,10240.0000,32.85442461,35.27945197,0.0,
9.4850,0.0547,0.4847,0.8873,0.0355,0.0107,-0.0095,0.0061,0.0159,0.0318,-30.0600,-10.8000,-32.8800,10240.0000,32.85442461,35.27945197,0.0,
9.4940,0.0547,0.4847,0.8873,0.0125,-0.0243,0.0104,0.0061,0.0159,0.0318,-30.0600,-10.8000,-32.8800,10240.0000,32.85442461,35.27945197,0.0,
9.7380,0.0586,0.4847,0.8873,0.0125,-0.0243,0.0104,0.0061,0.0159,0.0318,-30.0600,-10.8000,-32.8800,10240.0000,32.85442461,35.27945197,0.0,
9.7390,0.0547,0.4847,0.8834,0.0125,-0.0243,0.0104,0.0061,0.0159,0.0318,-30.0600,-10.8000,-32.8800,10240.0000,32.85442461,35.27945197,0.0,
9.7410,0.0508,0.4886,0.8834,0.0125,-0.0243,0.0104,0.0061,0.0159,0.0318,-30.0600,-10.8000,-32.8800,10240.0000,32.85442461,35.27945197,0.0,
9.7420,0.0508,0.4886,0.8834,0.0125,-0.0243,0.0104,0.0061,0.0159,0.0318,-30.0000,-10.5600,-32.9400,10240.0000,32.85442461,35.27945197,0.0,
9.7430,0.0547,0.4886,0.8873,0.0125,-0.0243,0.0104,0.0061,0.0159,0.0318,-30.0000,-10.5600,-32.9400,10240.0000,32.85442461,35.27945197,0.0,
9.7450,0.0547,0.4847,0.8834,0.0125,-0.0243,0.0104,0.0061,0.0159,0.0318,-30.0000,-10.5600,-32.9400,10240.0000,32.85442461,35.27945197,0.0,
9.7460,0.0586,0.4808,0.8795,0.0125,-0.0243,0.0104,0.0061,0.0159,0.0318,-30.0000,-10.5600,-32.9400,10240.0000,32.85442461,35.27945197,0.0,
9.7470,0.0625,0.4808,0.8795,0.0125,-0.0243,0.0104,0.0061,0.0159,0.0318,-30.0000,-10.5600,-32.9400,10240.0000,32.85442461,35.27945197,0.0,
9.7490,0.0625,0.4808,0.8756,0.0125,-0.0243,0.0104,0.0061,0.0159,0.0318,-30.0000,-10.5600,-32.9400,10240.0000,32.85442461,35.27945197,0.0,
9.7500,0.0665,0.4808,0.8756,0.0125,-0.0243,0.0104,0.0061,0.0159,0.0318,-30.0000,-10.5600,-32.9400,10240.0000,32.85442461,35.27945197,0.0,
9.7520,0.0665,0.4808,0.8756,0.0125,-0.0243,0.0104,0.0061,0.0159,0.0318,-30.1200,-10.4400,-32.9400,10240.0000,32.85442461,35.27945197,0.0,
9.7530,0.0665,0.4808,0.8756,0.0125,-0.0243,0.0104,0.0037,-0.0098,0.0086,-30.1200,-10.4400,-32.9400,10240.0000,32.85442461,35.27945197,0.0,
9.7540,0.0665,0.4808,0.8756,0.0125,-0.0243,0.0104,0.0037,-0.0098,0.0086,-30.3600,-10.6800,-33.3000,10240.0000,32.85442461,35.27945197,0.0,
9.7560,0.0625,0.4886,0.8873,0.0125,-0.0243,0.0104,0.0037,-0.0098,0.0086,-30.3600,-10.6800,-33.3000,10240.0000,32.85442461,35.27945197,0.0,
9.8120,0.0625,0.4925,0.8873,0.0125,-0.0243,0.0104,0.0037,-0.0098,0.0086,-30.3600,-10.6800,-33.3000,10240.0000,32.85442461,35.27945197,0.0,
9.8320,0.0586,0.4925,0.8912,0.0125,-0.0243,0.0104,0.0037,-0.0098,0.0086,-30.3600,-10.6800,-33.3000,10240.0000,32.85442461,35.27945197,0.0,
9.8510,0.0508,0.4925,0.8951,0.0125,-0.0243,0.0104,0.0037,-0.0098,0.0086,-30.3600,-10.6800,-33.3000,10240.0000,32.85442461,35.27945197,0.0,
9.8720,0.0508,0.4925,0.8951,0.0125,-0.0243,0.0104,0.0037,-0.0098,0.0086,-30.4800,-10.8000,-33.4200,10240.0000,32.85442461,35.27945197,0.0,
9.8820,0.0508,0.4925,0.8951,0.0125,-0.0243,0.0104,0.0171,0.0391,-0.0122,-30.4800,-10.8000,-33.4200,10240.0000,32.85442461,35.27945197,0.0,
9.8830,0.0508,0.4925,0.8951,-0.0548,-0.0239,0.0137,0.0171,0.0391,-0.0122,-30.4800,-10.8000,-33.4200,10240.0000,32.85442461,35.27945197,0.0,
9.8920,0.0547,0.4925,0.8795,-0.0548,-0.0239,0.0137,0.0171,0.0391,-0.0122,-30.4800,-10.8000,-33.4200,10240.0000,32.85442461,35.27945197,0.0,
9.9230,0.0508,0.4886,0.8795,-0.0548,-0.0239,0.0137,0.0171,0.0391,-0.0122,-30.4800,-10.8000,-33.4200,10240.0000,32.85442461,35.27945197,0.0,
9.9350,0.0469,0.4808,0.8756,-0.0548,-0.0239,0.0137,0.0171,0.0391,-0.0122,-30.4800,-10.8000,-33.4200,10240.0000,32.85442461,35.27945197,0.0,
9.9390,0.0469,0.4808,0.8756,-0.0548,-0.0239,0.0137,0.0171,0.0391,-0.0122,-30.3000,-10.6800,-33.4200,10240.0000,32.85442461,35.27945197,0.0,
9.9520,0.0469,0.4847,0.8717,-0.0548,-0.0239,0.0137,0.0171,0.0391,-0.0122,-30.3000,-10.6800,-33.4200,10240.0000,32.85442461,35.27945197,0.0,
9.9720,0.0547,0.4847,0.8639,-0.0548,-0.0239,0.0137,0.0171,0.0391,-0.0122,-30.3000,-10.6800,-33.4200,10240.0000,32.85442461,35.27945197,0.0,
9.9930,0.0547,0.4808,0.8678,-0.0548,-0.0239,0.0137,0.0171,0.0391,-0.0122,-30.3000,-10.6800,-33.4200,10240.0000,32.85442461,35.27945197,0.0,
10.0120,0.0469,0.4730,0.8795,-0.0548,-0.0239,0.0137,0.0171,0.0391,-0.0122,-30.3000,-10.6800,-33.4200,10240.0000,32.85442461,35.27945197,0.0,
10.0320,0.0391,0.4652,0.8834,-0.0548,-0.0239,0.0137,0.0171,0.0391,-0.0122,-30.3000,-10.6800,-33.4200,10240.0000,32.85442461,35.27945197,0.0,
10.0530,0.0430,0.4808,0.8678,-0.0548,-0.0239,0.0137,0.0171,0.0391,-0.0122,-30.3000,-10.6800,-33.4200,10240.0000,32.85442461,35.27945197,0.0,
10.0730,0.0430,0.4808,0.8678,-0.0548,-0.0239,0.0137,0.0171,0.0391,-0.0122,-30.3600,-10.5600,-33.5400,10240.0000,32.85442461,35.27945197,0.0,
10.0750,0.0508,0.4925,0.8600,-0.0548,-0.0239,0.0137,0.0171,0.0391,-0.0122,-30.3600,-10.5600,-33.5400,10240.0000,32.85442461,35.27945197,0.0,
10.0840,0.0508,0.4925,0.8600,-0.0548,-0.0239,0.0137,-0.0684,0.0232,-0.0061,-30.3600,-10.5600,-33.5400,10240.0000,32.85442461,35.27945197,0.0,
10.0860,0.0508,0.4925,0.8600,-0.0501,0.1365,-0.0756,-0.0684,0.0232,-0.0061,-30.3600,-10.5600,-33.5400,10240.0000,32.85442461,35.27945197,0.0,
10.0930,0.0586,0.4964,0.8639,-0.0501,0.1365,-0.0756,-0.0684,0.0232,-0.0061,-30.3600,-10.5600,-33.5400,10240.0000,32.85442461,35.27945197,0.0,
10.1150,0.0586,0.4925,0.8912,-0.0501,0.1365,-0.0756,-0.0684,0.0232,-0.0061,-30.3600,-10.5600,-33.5400,10240.0000,32.85442461,35.27945197,0.0,
10.1320,0.0586,0.4964,0.8951,-0.0501,0.1365,-0.0756,-0.0684,0.0232,-0.0061,-30.3600,-10.5600,-33.5400,10240.0000,32.85442461,35.27945197,0.0,
10.1370,0.0586,0.4964,0.8951,-0.0501,0.1365,-0.0756,-0.0684,0.0232,-0.0061,-30.1200,-10.3800,-33.6000,10240.0000,32.85442461,35.27945197,0.0,
10.1520,0.0547,0.4925,0.9030,-0.0501,0.1365,-0.0756,-0.0684,0.0232,-0.0061,-30.1200,-10.3800,-33.6000,10240.0000,32.85442461,35.27945197,0.0,
10.1720,0.0547,0.4925,0.9108,-0.0501,0.1365,-0.0756,-0.0684,0.0232,-0.0061,-30.1200,-10.3800,-33.6000,10240.0000,32.85442461,35.27945197,0.0,
10.1930,0.0508,0.5003,0.9069,-0.0501,0.1365,-0.0756,-0.0684,0.0232,-0.0061,-30.1200,-10.3800,-33.6000,10240.0000,32.85442461,35.27945197,0.0,
10.2120,0.0469,0.5042,0.9030,-0.0501,0.1365,-0.0756,-0.0684,0.0232,-0.0061,-30.1200,-10.3800,-33.6000,10240.0000,32.85442461,35.27945197,0.0,
10.2320,0.0430,0.5003,0.8990,-0.0501,0.1365,-0.0756,-0.0684,0.0232,-0.0061,-30.1200,-10.3800,-33.6000,10240.0000,32.85442461,35.27945197,0.0,
10.2520,0.0430,0.4964,0.8951,-0.0501,0.1365,-0.0756,-0.0684,0.0232,-0.0061,-30.1200,-10.3800,-33.6000,10240.0000,32.85442461,35.27945197,0.0,
10.2720,0.0430,0.4964,0.8951,-0.0501,0.1365,-0.0756,-0.0684,0.0232,-0.0061,-29.7600,-10.6200,-33.3600,10240.0000,32.85442461,35.27945197,0.0,
10.2760,0.0391,0.4964,0.8873,-0.0501,0.1365,-0.0756,-0.0684,0.0232,-0.0061,-29.7600,-10.6200,-33.3600,10240.0000,32.85442461,35.27945197,0.0,
10.2850,0.0391,0.4964,0.8873,-0.0501,0.1365,-0.0756,0.0208,0.0684,0.0562,-29.7600,-10.6200,-33.3600,10240.0000,32.85442461,35.27945197,0.0,
10.2880,0.0391,0.4964,0.8873,-0.1364,0.0755,-0.0356,0.0208,0.0684,0.0562,-29.7600,-10.6200,-33.3600,10240.0000,32.85442461,35.27945197,0.0,
10.2950,0.0430,0.4964,0.8795,-0.1364,0.0755,-0.0356,0.0208,0.0684,0.0562,-29.7600,-10.6200,-33.3600,10240.0000,32.85442461,35.27945197,0.0,
10.3140,0.0469,0.4886,0.8795,-0.1364,0.0755,-0.0356,0.0208,0.0684,0.0562,-29.7600,-10.6200,-33.3600,10240.0000,32.85442461,35.27945197,0.0,
10.6800,0.0469,0.4847,0.8834,-0.1364,0.0755,-0.0356,0.0208,0.0684,0.0562,-29.7600,-10.6200,-33.3600,10240.0000,32.85442461,35.27945197,0.0,
10.6810,0.0469,0.4847,0.8834,-0.1364,0.0755,-0.0356,0.0208,0.0684,0.0562,-29.9400,-10.6200,-33.3600,10240.0000,32.85442461,35.27945197,0.0,
10.6830,0.0469,0.4808,0.8756,-0.1364,0.0755,-0.0356,0.0208,0.0684,0.0562,-29.9400,-10.6200,-33.3600,10240.0000,32.85442461,35.27945197,0.0,
10.6840,0.0508,0.4808,0.8717,-0.1364,0.0755,-0.0356,0.0208,0.0684,0.0562,-29.9400,-10.6200,-33.3600,10240.0000,32.85442461,35.27945197,0.0,
10.6850,0.0508,0.4808,0.8678,-0.1364,0.0755,-0.0356,0.0208,0.0684,0.0562,-29.9400,-10.6200,-33.3600,10240.0000,32.85442461,35.27945197,0.0,
10.6860,0.0547,0.4769,0.8756,-0.1364,0.0755,-0.0356,0.0208,0.0684,0.0562,-29.9400,-10.6200,-33.3600,10240.0000,32.85442461,35.27945197,0.0,
10.6870,0.0547,0.4769,0.8795,-0.1364,0.0755,-0.0356,0.0208,0.0684,0.0562,-29.9400,-10.6200,-33.3600,10240.0000,32.85442461,35.27945197,0.0,
10.6890,0.0625,0.4769,0.8834,-0.1364,0.0755,-0.0356,0.0208,0.0684,0.0562,-29.9400,-10.6200,-33.3600,10240.0000,32.85442461,35.27945197,0.0,
10.6900,0.0625,0.4769,0.8834,-0.1364,0.0755,-0.0356,0.0208,0.0684,0.0562,-30.1200,-10.7400,-33.4200,10240.0000,32.85442461,35.27945197,0.0,
10.6920,0.0586,0.4769,0.8912,-0.1364,0.0755,-0.0356,0.0208,0.0684,0.0562,-30.1200,-10.7400,-33.4200,10240.0000,32.85442461,35.27945197,0.0,
10.6930,0.0586,0.4769,0.8912,-0.1364,0.0755,-0.0356,-0.0403,-0.0012,0.0318,-30.1200,-10.7400,-33.4200,10240.0000,32.85442461,35.27945197,0.0,
10.6940,0.0586,0.4769,0.8912,0.0549,-0.0907,0.0452,-0.0403,-0.0012,0.0318,-30.1200,-10.7400,-33.4200,10240.0000,32.85442461,35.27945197,0.0,
10.6960,0.0547,0.4847,0.8834,0.0549,-0.0907,0.0452,-0.0403,-0.0012,0.0318,-30.1200,-10.7400,-33.4200,10240.0000,32.85442461,35.27945197,0.0,
10.6970,0.0547,0.4847,0.8834,0.0549,-0.0907,0.0452,-0.0049,-0.0049,0.0049,-30.1200,-10.7400,-33.4200,10240.0000,32.85442461,35.27945197,0.0,
10.6980,0.0547,0.4847,0.8834,0.0097,-0.0152,0.0068,-0.0049,-0.0049,0.0049,-30.1200,-10.7400,-33.4200,10240.0000,32.85442461,35.27945197,0.0,
10.7020,0.0508,0.4847,0.8834,0.0097,-0.0152,0.0068,-0.0049,-0.0049,0.0049,-30.1200,-10.7400,-33.4200,10240.0000,32.85442461,35.27945197,0.0,
10.7320,0.0508,0.4847,0.8834,0.0097,-0.0152,0.0068,-0.0049,-0.0049,0.0049,-29.9400,-10.8000,-33.3600,10240.0000,32.85442461,35.27945197,0.0,
10.7420,0.0547,0.4847,0.8834,0.0097,-0.0152,0.0068,-0.0049,-0.0049,0.0049,-29.9400,-10.8000,-33.3600,10240.0000,32.85442461,35.27945197,0.0,
10.7670,0.0547,0.4847,0.8873,0.0097,-0.0152,0.0068,-0.0049,-0.0049,0.0049,-29.9400,-10.8000,-33.3600,10240.0000,32.85442461,35.27945197,0.0,
10.7830,0.0508,0.4808,0.8951,0.0097,-0.0152,0.0068,-0.0049,-0.0049,0.0049,-29.9400,-10.8000,-33.3600,10240.0000,32.85442461,35.27945197,0.0,
10.8030,0.0469,0.4769,0.8990,0.0097,-0.0152,0.0068,-0.0049,-0.0049,0.0049,-29.9400,-10.8000,-33.3600,10240.0000,32.85442461,35.27945197,0.0,
10.8230,0.0547,0.4847,0.8795,0.0097,-0.0152,0.0068,-0.0049,-0.0049,0.0049,-29.9400,-10.8000,-33.3600,10240.0000,32.85442461,35.27945197,0.0,
10.8420,0.0586,0.4847,0.8717,0.0097,-0.0152,0.0068,-0.0049,-0.0049,0.0049,-29.9400,-10.8000,-33.3600,10240.0000,32.85442461,35.27945197,0.0,
10.8660,0.0547,0.4847,0.8756,0.0097,-0.0152,0.0068,-0.0049,-0.0049,0.0049,-29.9400,-10.8000,-33.3600,10240.0000,32.85442461,35.27945197,0.0,
10.8700,0.0547,0.4847,0.8756,0.0097,-0.0152,0.0068,-0.0049,-0.0049,0.0049,-29.8800,-10.8000,-33.3000,10240.0000,32.85442461,35.27945197,0.0,
10.8860,0.0508,0.4808,0.8834,0.0097,-0.0152,0.0068,-0.0049,-0.0049,0.0049,-29.8800,-10.8000,-33.3000,10240.0000,32.85442461,35.27945197,0.0,
10.8920,0.0508,0.4808,0.8834,0.0097,-0.0152,0.0068,-0.0061,-0.0037,0.0122,-29.8800,-10.8000,-33.3000,10240.0000,32.85442461,35.27945197,0.0,
10.8970,0.0508,0.4808,0.8834,-0.0348,-0.0540,0.0306,-0.0061,-0.0037,0.0122,-29.8800,-10.8000,-33.3000,10240.0000,32.85442461,35.27945197,0.0,
10.9060,0.0547,0.4847,0.8834,-0.0348,-0.0540,0.0306,-0.0061,-0.0037,0.0122,-29.8800,-10.8000,-33.3000,10240.0000,32.85442461,35.27945197,0.0,
10.9260,0.0547,0.4847,0.8873,-0.0348,-0.0540,0.0306,-0.0061,-0.0037,0.0122,-29.8800,-10.8000,-33.3000,10240.0000,32.85442461,35.27945197,0.0,
10.9320,0.0547,0.4847,0.8873,-0.0348,-0.0540,0.0306,-0.0061,-0.0037,0.0122,-30.1800,-10.8000,-33.4800,10240.0000,32.85442461,35.27945197,0.0,
10.9430,0.0547,0.4808,0.8912,-0.0348,-0.0540,0.0306,-0.0061,-0.0037,0.0122,-30.1800,-10.8000,-33.4800,10240.0000,32.85442461,35.27945197,0.0,
10.9660,0.0547,0.4769,0.8873,-0.0348,-0.0540,0.0306,-0.0061,-0.0037,0.0122,-30.1800,-10.8000,-33.4800,10240.0000,32.85442461,35.27945197,0.0,
10.9820,0.0547,0.4769,0.8795,-0.0348,-0.0540,0.0306,-0.0061,-0.0037,0.0122,-30.1800,-10.8000,-33.4800,10240.0000,32.85442461,35.27945197,0.0,
11.0020,0.0547,0.4808,0.8873,-0.0348,-0.0540,0.0306,-0.0061,-0.0037,0.0122,-30.1800,-10.8000,-33.4800,10240.0000,32.85442461,35.27945197,0.0,
11.0220,0.0508,0.4808,0.8951,-0.0348,-0.0540,0.0306,-0.0061,-0.0037,0.0122,-30.1800,-10.8000,-33.4800,10240.0000,32.85442461,35.27945197,0.0,
11.0420,0.0547,0.4808,0.8912,-0.0348,-0.0540,0.0306,-0.0061,-0.0037,0.0122,-30.1800,-10.8000,-33.4800,10240.0000,32.85442461,35.27945197,0.0,
11.0620,0.0586,0.4847,0.8834,-0.0348,-0.0540,0.0306,-0.0061,-0.0037,0.0122,-30.1800,-10.8000,-33.4800,10240.0000,32.85442461,35.27945197,0.0,
11.0640,0.0586,0.4847,0.8834,-0.0348,-0.0540,0.0306,-0.0061,-0.0037,0.0122,-30.1200,-10.8600,-33.4200,10240.0000,32.85442461,35.27945197,0.0,
11.0820,0.0586,0.4808,0.8795,-0.0348,-0.0540,0.0306,-0.0061,-0.0037,0.0122,-30.1200,-10.8600,-33.4200,10240.0000,32.85443694,35.27942298,0.0,
11.0840,0.0586,0.4808,0.8795,-0.0348,-0.0540,0.0306,-0.0049,0.0293,0.0171,-30.1200,-10.8600,-33.4200,10240.0000,32.85443694,35.27942298,0.0,
11.0850,0.0586,0.4808,0.8795,0.0274,-0.0478,0.0233,-0.0049,0.0293,0.0171,-30.1200,-10.8600,-33.4200,10240.0000,32.85443694,35.27942298,0.0,
11.1020,0.0586,0.4847,0.8834,0.0274,-0.0478,0.0233,-0.0049,0.0293,0.0171,-30.1200,-10.8600,-33.4200,10240.0000,32.85443694,35.27942298,0.0,
11.1220,0.0508,0.4847,0.8873,0.0274,-0.0478,0.0233,-0.0049,0.0293,0.0171,-30.1200,-10.8600,-33.4200,10240.0000,32.85443694,35.27942298,0.0,
11.1290,0.0508,0.4847,0.8873,0.0274,-0.0478,0.0233,-0.0049,0.0293,0.0171,-29.7600,-10.7400,-33.4200,10240.0000,32.85443694,35.27942298,0.0,
11.1420,0.0547,0.4847,0.8834,0.0274,-0.0478,0.0233,-0.0049,0.0293,0.0171,-29.7600,-10.7400,-33.4200,10240.0000,32.85443694,35.27942298,0.0,
11.1620,0.0547,0.4847,0.8912,0.0274,-0.0478,0.0233,-0.0049,0.0293,0.0171,-29.7600,-10.7400,-33.4200,10240.0000,32.85443694,35.27942298,0.0,
11.1820,0.0547,0.4808,0.8951,0.0274,-0.0478,0.0233,-0.0049,0.0293,0.0171,-29.7600,-10.7400,-33.4200,10240.0000,32.85443694,35.27942298,0.0,
11.2020,0.0508,0.4769,0.8990,0.0274,-0.0478,0.0233,-0.0049,0.0293,0.0171,-29.7600,-10.7400,-33.4200,10240.0000,32.85443694,35.27942298,0.0,
11.2220,0.0547,0.4769,0.8951,0.0274,-0.0478,0.0233,-0.0049,0.0293,0.0171,-29.7600,-10.7400,-33.4200,10240.0000,32.85443694,35.27942298,0.0,
11.5520,0.0586,0.4769,0.8912,0.0274,-0.0478,0.0233,-0.0049,0.0293,0.0171,-29.7600,-10.7400,-33.4200,10240.0000,32.85443694,35.27942298,0.0,
11.5540,0.0586,0.4769,0.8912,0.0274,-0.0478,0.0233,-0.0049,0.0293,0.0171,-29.8200,-10.6200,-33.5400,10240.0000,32.85443694,35.27942298,0.0,
11.5550,0.0625,0.4730,0.8873,0.0274,-0.0478,0.0233,-0.0049,0.0293,0.0171,-29.8200,-10.6200,-33.5400,10240.0000,32.85443694,35.27942298,0.0,
11.5560,0.0665,0.4769,0.8834,0.0274,-0.0478,0.0233,-0.0049,0.0293,0.0171,-29.8200,-10.6200,-33.5400,10240.0000,32.85443694,35.27942298,0.0,
11.5580,0.0665,0.4769,0.8834,0.0274,-0.0478,0.0233,0.0024,0.0293,0.0049,-29.8200,-10.6200,-33.5400,10240.0000,32.85443694,35.27942298,0.0,
11.5590,0.0665,0.4769,0.8834,0.0776,-0.0940,0.0447,0.0024,0.0293,0.0049,-29.8200,-10.6200,-33.5400,10240.0000,32.85443694,35.27942298,0.0,
11.5610,0.0704,0.4730,0.8795,0.0776,-0.0940,0.0447,0.0024,0.0293,0.0049,-29.8200,-10.6200,-33.5400,10240.0000,32.85443694,35.27942298,0.0,
11.5620,0.0704,0.4730,0.8795,0.0776,-0.0940,0.0447,0.0024,0.0293,0.0049,-30.1800,-10.4400,-33.7200,10240.0000,32.85443694,35.27942298,0.0,
11.5630,0.0665,0.4730,0.8834,0.0776,-0.0940,0.0447,0.0024,0.0293,0.0049,-30.1800,-10.4400,-33.7200,10240.0000,32.85443694,35.27942298,0.0,
11.5640,0.0586,0.4808,0.8873,0.0776,-0.0940,0.0447,0.0024,0.0293,0.0049,-30.1800,-10.4400,-33.7200,10240.0000,32.85443694,35.27942298,0.0,
11.5650,0.0508,0.4808,0.8912,0.0776,-0.0940,0.0447,0.0024,0.0293,0.0049,-30.1800,-10.4400,-33.7200,10240.0000,32.85443694,35.27942298,0.0,
11.5660,0.0469,0.4808,0.8951,0.0776,-0.0940,0.0447,0.0024,0.0293,0.0049,-30.1800,-10.4400,-33.7200,10240.0000,32.85443694,35.27942298,0.0,
11.5720,0.0508,0.4886,0.8443,0.0776,-0.0940,0.0447,0.0024,0.0293,0.0049,-30.1800,-10.4400,-33.7200,10240.0000,32.85443694,35.27942298,0.0,
11.5920,0.0430,0.4847,0.8756,0.0776,-0.0940,0.0447,0.0024,0.0293,0.0049,-30.1800,-10.4400,-33.7200,10240.0000,32.85443694,35.27942298,0.0,
11.6120,0.0469,0.4847,0.8912,0.0776,-0.0940,0.0447,0.0024,0.0293,0.0049,-30.1800,-10.4400,-33.7200,10240.0000,32.85443694,35.27942298,0.0,
11.6320,0.0586,0.4808,0.9030,0.0776,-0.0940,0.0447,0.0024,0.0293,0.0049,-30.1800,-10.4400,-33.7200,10240.0000,32.85443694,35.27942298,0.0,
11.6520,0.0625,0.4730,0.9108,0.0776,-0.0940,0.0447,0.0024,0.0293,0.0049,-30.1800,-10.4400,-33.7200,10240.0000,32.85443694,35.27942298,0.0,
11.6610,0.0625,0.4730,0.9108,0.0776,-0.0940,0.0447,0.0024,0.0293,0.0049,-30.6000,-10.2000,-33.6600,10240.0000,32.85443694,35.27942298,0.0,
11.6740,0.0743,0.4691,0.9225,0.0776,-0.0940,0.0447,0.0024,0.0293,0.0049,-30.6000,-10.2000,-33.6600,10240.0000,32.85443694,35.27942298,0.0,
11.6850,0.0743,0.4691,0.9225,0.0776,-0.0940,0.0447,-0.0684,0.0269,0.0831,-30.6000,-10.2000,-33.6600,10240.0000,32.85443694,35.27942298,0.0,
11.6880,0.0743,0.4691,0.9225,0.1000,-0.2489,0.1234,-0.0684,0.0269,0.0831,-30.6000,-10.2000,-33.6600,10240.0000,32.85443694,35.27942298,0.0,
11.6950,0.0782,0.4691,0.9303,0.1000,-0.2489,0.1234,-0.0684,0.0269,0.0831,-30.6000,-10.2000,-33.6600,10240.0000,32.85443694,35.27942298,0.0,
11.7140,0.0821,0.4691,0.9303,0.1000,-0.2489,0.1234,-0.0684,0.0269,0.0831,-30.6000,-10.2000,-33.6600,10240.0000,32.85443694,35.27942298,0.0,
11.7280,0.0821,0.4691,0.9303,0.1000,-0.2489,0.1234,-0.0684,0.0269,0.0831,-30.5400,-10.3200,-33.7200,10240.0000,32.85443694,35.27942298,0.0,
11.7340,0.0821,0.4691,0.9342,0.1000,-0.2489,0.1234,-0.0684,0.0269,0.0831,-30.5400,-10.3200,-33.7200,10240.0000,32.85443694,35.27942298,0.0,
11.7540,0.0782,0.4613,0.9303,0.1000,-0.2489,0.1234,-0.0684,0.0269,0.0831,-30.5400,-10.3200,-33.7200,10240.0000,32.85443694,35.27942298,0.0,
11.7740,0.0821,0.4652,0.9186,0.1000,-0.2489,0.1234,-0.0684,0.0269,0.0831,-30.5400,-10.3200,-33.7200,10240.0000,32.85443694,35.27942298,0.0,
11.8200,0.0821,0.4613,0.9030,0.1000,-0.2489,0.1234,-0.0684,0.0269,0.0831,-30.5400,-10.3200,-33.7200,10240.0000,32.85443694,35.27942298,0.0,
11.8230,0.0860,0.4573,0.8873,0.1000,-0.2489,0.1234,-0.0684,0.0269,0.0831,-30.5400,-10.3200,-33.7200,10240.0000,32.85443694,35.27942298,0.0,
11.8350,0.0782,0.4573,0.8756,0.1000,-0.2489,0.1234,-0.0684,0.0269,0.0831,-30.5400,-10.3200,-33.7200,10240.0000,32.85443694,35.27942298,0.0,
11.8540,0.0743,0.4573,0.8756,0.1000,-0.2489,0.1234,-0.0684,0.0269,0.0831,-30.5400,-10.3200,-33.7200,10240.0000,32.85443694,35.27942298,0.0,
11.8630,0.0743,0.4573,0.8756,0.1000,-0.2489,0.1234,-0.0684,0.0269,0.0831,-30.9600,-10.0200,-33.4200,10240.0000,32.85443694,35.27942298,0.0,
11.8750,0.0704,0.4573,0.8795,0.1000,-0.2489,0.1234,-0.0684,0.0269,0.0831,-30.9600,-10.0200,-33.4200,10240.0000,32.85443694,35.27942298,0.0,
11.8840,0.0704,0.4573,0.8795,0.1000,-0.2489,0.1234,0.0195,0.0599,-0.0073,-30.9600,-10.0200,-33.4200,10240.0000,32.85443694,35.27942298,0.0,
11.9040,0.0704,0.4573,0.8795,0.0879,-0.0972,0.0458,0.0195,0.0599,-0.0073,-30.9600,-10.0200,-33.4200,10240.0000,32.85443694,35.27942298,0.0,
11.9090,0.0586,0.4573,0.9030,0.0879,-0.0972,0.0458,0.0195,0.0599,-0.0073,-30.9600,-10.0200,-33.4200,10240.0000,32.85443694,35.27942298,0.0,
11.9170,0.0586,0.4613,0.9069,0.0879,-0.0972,0.0458,0.0195,0.0599,-0.0073,-30.9600,-10.0200,-33.4200,10240.0000,32.85443694,35.27942298,0.0,
11.9260,0.0586,0.4613,0.9069,0.0879,-0.0972,0.0458,0.0195,0.0599,-0.0073,-31.0800,-9.9600,-33.5400,10240.0000,32.85443694,35.27942298,0.0,
11.9330,0.0625,0.4613,0.8951,0.0879,-0.0972,0.0458,0.0195,0.0599,-0.0073,-31.0800,-9.9600,-33.5400,10240.0000,32.85443694,35.27942298,0.0,
11.9560,0.0665,0.4613,0.8873,0.0879,-0.0972,0.0458,0.0195,0.0599,-0.0073,-31.0800,-9.9600,-33.5400,10240.0000,32.85443694,35.27942298,0.0,
11.9720,0.0665,0.4652,0.8873,0.0879,-0.0972,0.0458,0.0195,0.0599,-0.0073,-31.0800,-9.9600,-33.5400,10240.0000,32.85443694,35.27942298,0.0,
11.9920,0.0625,0.4652,0.8873,0.0879,-0.0972,0.0458,0.0195,0.0599,-0.0073,-31.0800,-9.9600,-33.5400,10240.0000,32.85443694,35.27942298,0.0,
12.0180,0.0586,0.4652,0.8951,0.0879,-0.0972,0.0458,0.0195,0.0599,-0.0073,-31.0800,-9.9600,-33.5400,10240.0000,32.85443694,35.27942298,0.0,
12.0340,0.0547,0.4691,0.8990,0.0879,-0.0972,0.0458,0.0195,0.0599,-0.0073,-31.0800,-9.9600,-33.5400,10240.0000,32.85443694,35.27942298,0.0,
12.0530,0.0547,0.4730,0.8990,0.0879,-0.0972,0.0458,0.0195,0.0599,-0.0073,-31.0800,-9.9600,-33.5400,10240.0000,32.85443694,35.27942298,0.0,
12.0630,0.0547,0.4730,0.8990,0.0879,-0.0972,0.0458,0.0195,0.0599,-0.0073,-31.0200,-10.1400,-33.4800,10240.0000,32.85443694,35.27942298,0.0,
12.0850,0.0586,0.4769,0.8990,0.0879,-0.0972,0.0458,0.0195,0.0599,-0.0073,-31.0200,-10.1400,-33.4800,10240.0000,32.85443694,35.27942298,0.0,
12.1030,0.0586,0.4769,0.8990,0.0879,-0.0972,0.0458,-0.0171,0.0415,-0.0122,-31.0200,-10.1400,-33.4800,10240.0000,32.85443694,35.27942298,0.0,
12.1060,0.0586,0.4769,0.8990,-0.0058,-0.0286,0.0171,-0.0171,0.0415,-0.0122,-31.0200,-10.1400,-33.4800,10240.0000,32.85443694,35.27942298,0.0,
12.1200,0.0625,0.4691,0.8990,-0.0058,-0.0286,0.0171,-0.0171,0.0415,-0.0122,-31.0200,-10.1400,-33.4800,10240.0000,32.85443694,35.27942298,0.0,
12.3650,0.0625,0.4652,0.8990,-0.0058,-0.0286,0.0171,-0.0171,0.0415,-0.0122,-31.0200,-10.1400,-33.4800,10240.0000,32.85443694,35.27942298,0.0,
12.3660,0.0625,0.4652,0.8990,-0.0058,-0.0286,0.0171,-0.0171,0.0415,-0.0122,-30.9000,-10.2000,-33.4800,10240.0000,32.85443694,35.27942298,0.0,
12.3670,0.0665,0.4613,0.8990,-0.0058,-0.0286,0.0171,-0.0171,0.0415,-0.0122,-30.9000,-10.2000,-33.4800,10240.0000,32.85443694,35.27942298,0.0,
12.3680,0.0625,0.4573,0.8990,-0.0058,-0.0286,0.0171,-0.0171,0.0415,-0.0122,-30.9000,-10.2000,-33.4800,10240.0000,32.85443694,35.27942298,0.0,
12.3690,0.0586,0.4534,0.8951,-0.0058,-0.0286,0.0171,-0.0171,0.0415,-0.0122,-30.9000,-10.2000,-33.4800,10240.0000,32.85443694,35.27942298,0.0,
12.3700,0.0586,0.4495,0.8873,-0.0058,-0.0286,0.0171,-0.0171,0.0415,-0.0122,-30.9000,-10.2000,-33.4800,10240.0000,32.85443694,35.27942298,0.0,
12.3710,0.0625,0.4495,0.8873,-0.0058,-0.0286,0.0171,-0.0171,0.0415,-0.0122,-30.9000,-10.2000,-33.4800,10240.0000,32.85443694,35.27942298,0.0,
12.3720,0.0625,0.4456,0.8873,-0.0058,-0.0286,0.0171,-0.0171,0.0415,-0.0122,-30.9000,-10.2000,-33.4800,10240.0000,32.85443694,35.27942298,0.0,
12.3730,0.0625,0.4495,0.8873,-0.0058,-0.0286,0.0171,-0.0171,0.0415,-0.0122,-30.9000,-10.2000,-33.4800,10240.0000,32.85443694,35.27942298,0.0,
12.3740,0.0625,0.4495,0.8873,-0.0058,-0.0286,0.0171,-0.0171,0.0415,-0.0122,-30.6600,-10.1400,-33.7200,10240.0000,32.85443694,35.27942298,0.0,
12.3750,0.0704,0.4495,0.8873,-0.0058,-0.0286,0.0171,-0.0171,0.0415,-0.0122,-30.6600,-10.1400,-33.7200,10240.0000,32.85443694,35.27942298,0.0,
12.3760,0.0704,0.4495,0.8873,-0.0058,-0.0286,0.0171,-0.0476,0.0049,-0.0562,-30.6600,-10.1400,-33.7200,10240.0000,32.85443694,35.27942298,0.0,
12.3800,0.0704,0.4652,0.9069,-0.0058,-0.0286,0.0171,-0.0476,0.0049,-0.0562,-30.6600,-10.1400,-33.7200,10240.0000,32.85443694,35.27942298,0.0,
12.3920,0.0665,0.4691,0.9069,-0.0058,-0.0286,0.0171,-0.0476,0.0049,-0.0562,-30.6600,-10.1400,-33.7200,10240.0000,32.85452624,35.27952279,0.0,
12.4110,0.0586,0.4769,0.9147,-0.0058,-0.0286,0.0171,-0.0476,0.0049,-0.0562,-30.6600,-10.1400,-33.7200,10240.0000,32.85452624,35.27952279,0.0,
12.4310,0.0547,0.4769,0.9186,-0.0058,-0.0286,0.0171,-0.0476,0.0049,-0.0562,-30.6600,-10.1400,-33.7200,10240.0000,32.85452624,35.27952279,0.0,
12.4510,0.0508,0.4769,0.9186,-0.0058,-0.0286,0.0171,-0.0476,0.0049,-0.0562,-30.6600,-10.1400,-33.7200,10240.0000,32.85452624,35.27952279,0.0,
12.4540,0.0508,0.4769,0.9186,-0.0058,-0.0286,0.0171,-0.0476,0.0049,-0.0562,-30.4200,-9.8400,-33.4800,10240.0000,32.85452624,35.27952279,0.0,
12.4710,0.0508,0.4730,0.9108,-0.0058,-0.0286,0.0171,-0.0476,0.0049,-0.0562,-30.4200,-9.8400,-33.4800,10240.0000,32.85452624,35.27952279,0.0,
12.4820,0.0508,0.4730,0.9108,-0.0058,-0.0286,0.0171,0.0415,0.0049,-0.0379,-30.4200,-9.8400,-33.4800,10240.0000,32.85452624,35.27952279,0.0,
12.4830,0.0508,0.4730,0.9108,-0.0701,-0.0761,0.0462,0.0415,0.0049,-0.0379,-30.4200,-9.8400,-33.4800,10240.0000,32.85452624,35.27952279,0.0,
12.4920,0.0508,0.4730,0.8951,-0.0701,-0.0761,0.0462,0.0415,0.0049,-0.0379,-30.4200,-9.8400,-33.4800,10240.0000,32.85452624,35.27952279,0.0,
12.5110,0.0508,0.4691,0.8912,-0.0701,-0.0761,0.0462,0.0415,0.0049,-0.0379,-30.4200,-9.8400,-33.4800,10240.0000,32.85452624,35.27952279,0.0,
12.5250,0.0508,0.4691,0.8912,-0.0701,-0.0761,0.0462,0.0415,0.0049,-0.0379,-30.5400,-9.8400,-33.1800,10240.0000,32.85452624,35.27952279,0.0,
12.5320,0.0508,0.4691,0.8873,-0.0701,-0.0761,0.0462,0.0415,0.0049,-0.0379,-30.5400,-9.8400,-33.1800,10240.0000,32.85452624,35.27952279,0.0,
12.5520,0.0547,0.4613,0.8873,-0.0701,-0.0761,0.0462,0.0415,0.0049,-0.0379,-30.5400,-9.8400,-33.1800,10240.0000,32.85452624,35.27952279,0.0,
12.5720,0.0586,0.4613,0.8795,-0.0701,-0.0761,0.0462,0.0415,0.0049,-0.0379,-30.5400,-9.8400,-33.1800,10240.0000,32.85452624,35.27952279,0.0,
12.5930,0.0625,0.4573,0.8795,-0.0701,-0.0761,0.0462,0.0415,0.0049,-0.0379,-30.5400,-9.8400,-33.1800,10240.0000,32.85452624,35.27952279,0.0,
12.6120,0.0586,0.4573,0.8795,-0.0701,-0.0761,0.0462,0.0415,0.0049,-0.0379,-30.5400,-9.8400,-33.1800,10240.0000,32.85452624,35.27952279,0.0,
12.6530,0.0586,0.4652,0.8795,-0.0701,-0.0761,0.0462,0.0415,0.0049,-0.0379,-30.5400,-9.8400,-33.1800,10240.0000,32.85452624,35.27952279,0.0,
12.6550,0.0586,0.4652,0.8795,-0.0701,-0.0761,0.0462,0.0415,0.0049,-0.0379,-30.3000,-9.9000,-33.5400,10240.0000,32.85452624,35.27952279,0.0,
12.6950,0.0586,0.4652,0.8795,-0.0701,-0.0761,0.0462,-0.0049,-0.0171,-0.0367,-30.3000,-9.9000,-33.5400,10240.0000,32.85452624,35.27952279,0.0,
12.7000,0.0586,0.4652,0.8795,0.0080,-0.0175,0.0105,-0.0049,-0.0171,-0.0367,-30.3000,-9.9000,-33.5400,10240.0000,32.85452624,35.27952279,0.0,
12.7040,0.0547,0.4691,0.8873,0.0080,-0.0175,0.0105,-0.0049,-0.0171,-0.0367,-30.3000,-9.9000,-33.5400,10240.0000,32.85452624,35.27952279,0.0,
12.7140,0.0430,0.4808,0.9069,0.0080,-0.0175,0.0105,-0.0049,-0.0171,-0.0367,-30.3000,-9.9000,-33.5400,10240.0000,32.85452624,35.27952279,0.0,
12.7250,0.0430,0.4808,0.9069,0.0080,-0.0175,0.0105,-0.0049,-0.0171,-0.0367,-30.5400,-10.0800,-33.5400,10240.0000,32.85452624,35.27952279,0.0,
12.7340,0.0391,0.4808,0.9108,0.0080,-0.0175,0.0105,-0.0049,-0.0171,-0.0367,-30.5400,-10.0800,-33.5400,10240.0000,32.85452624,35.27952279,0.0,
12.7540,0.0352,0.4847,0.9186,0.0080,-0.0175,0.0105,-0.0049,-0.0171,-0.0367,-30.5400,-10.0800,-33.5400,10240.0000,32.85452624,35.27952279,0.0,
12.7740,0.0391,0.4886,0.9108,0.0080,-0.0175,0.0105,-0.0049,-0.0171,-0.0367,-30.5400,-10.0800,-33.5400,10240.0000,32.85452624,35.27952279,0.0,
12.7960,0.0391,0.4964,0.8951,0.0080,-0.0175,0.0105,-0.0049,-0.0171,-0.0367,-30.5400,-10.0800,-33.5400,10240.0000,32.85452624,35.27952279,0.0,
12.8140,0.0469,0.4964,0.8834,0.0080,-0.0175,0.0105,-0.0049,-0.0171,-0.0367,-30.5400,-10.0800,-33.5400,10240.0000,32.85452624,35.27952279,0.0,
12.8350,0.0508,0.4886,0.8717,0.0080,-0.0175,0.0105,-0.0049,-0.0171,-0.0367,-30.5400,-10.0800,-33.5400,10240.0000,32.85452624,35.27952279,0.0,
12.8550,0.0508,0.4886,0.8717,0.0080,-0.0175,0.0105,-0.0049,-0.0171,-0.0367,-30.6600,-10.0800,-33.3000,10240.0000,32.85452624,35.27952279,0.0,
12.8810,0.0704,0.4769,0.8717,0.0080,-0.0175,0.0105,-0.0049,-0.0171,-0.0367,-30.6600,-10.0800,-33.3000,10240.0000,32.85452624,35.27952279,0.0,
12.8830,0.0821,0.4652,0.8717,0.0080,-0.0175,0.0105,-0.0049,-0.0171,-0.0367,-30.6600,-10.0800,-33.3000,10240.0000,32.85452624,35.27952279,0.0,
12.8840,0.0821,0.4652,0.8717,0.0080,-0.0175,0.0105,-0.0318,0.0354,0.1344,-30.6600,-10.0800,-33.3000,10240.0000,32.85452624,35.27952279,0.0,
12.8850,0.0821,0.4652,0.8717,0.1647,0.0280,-0.0276,-0.0318,0.0354,0.1344,-30.6600,-10.0800,-33.3000,10240.0000,32.85452624,35.27952279,0.0,
12.8970,0.0860,0.4613,0.8756,0.1647,0.0280,-0.0276,-0.0318,0.0354,0.1344,-30.6600,-10.0800,-33.3000,10240.0000,32.85452624,35.27952279,0.0,
12.9220,0.0899,0.4573,0.8795,0.1647,0.0280,-0.0276,-0.0318,0.0354,0.1344,-30.6600,-10.0800,-33.3000,10240.0000,32.85452624,35.27952279,0.0,
12.9230,0.0899,0.4573,0.8795,0.1647,0.0280,-0.0276,-0.0318,0.0354,0.1344,-30.7800,-10.2600,-33.2400,10240.0000,32.85452624,35.27952279,0.0,
13.2480,0.0899,0.4534,0.8912,0.1647,0.0280,-0.0276,-0.0318,0.0354,0.1344,-30.7800,-10.2600,-33.2400,10240.0000,32.85452624,35.27952279,0.0,
13.2500,0.0821,0.4573,0.8990,0.1647,0.0280,-0.0276,-0.0318,0.0354,0.1344,-30.7800,-10.2600,-33.2400,10240.0000,32.85452624,35.27952279,0.0,
13.2520,0.0821,0.4573,0.9030,0.1647,0.0280,-0.0276,-0.0318,0.0354,0.1344,-30.7800,-10.2600,-33.2400,10240.0000,32.85452624,35.27952279,0.0,
13.2530,0.0782,0.4613,0.9030,0.1647,0.0280,-0.0276,-0.0318,0.0354,0.1344,-30.7800,-10.2600,-33.2400,10240.0000,32.85452624,35.27952279,0.0,
13.2550,0.0704,0.4573,0.9069,0.1647,0.0280,-0.0276,-0.0318,0.0354,0.1344,-30.7800,-10.2600,-33.2400,10240.0000,32.85452624,35.27952279,0.0,
13.2570,0.0665,0.4613,0.8990,0.1647,0.0280,-0.0276,-0.0318,0.0354,0.1344,-30.7800,-10.2600,-33.2400,10240.0000,32.85452624,35.27952279,0.0,
13.2660,0.0665,0.4613,0.8990,0.1647,0.0280,-0.0276,-0.0318,0.0354,0.1344,-31.0200,-10.3200,-33.0000,10240.0000,32.85452624,35.27952279,0.0,
13.2670,0.0704,0.4730,0.8873,0.1647,0.0280,-0.0276,-0.0318,0.0354,0.1344,-31.0200,-10.3200,-33.0000,10240.0000,32.85452624,35.27952279,0.0,
13.2680,0.0743,0.4730,0.8834,0.1647,0.0280,-0.0276,-0.0318,0.0354,0.1344,-31.0200,-10.3200,-33.0000,10240.0000,32.85452624,35.27952279,0.0,
13.2700,0.0743,0.4730,0.8834,0.1647,0.0280,-0.0276,-0.0110,0.0183,-0.0073,-31.0200,-10.3200,-33.0000,10240.0000,32.85452624,35.27952279,0.0,
13.2710,0.0743,0.4730,0.8834,0.0289,0.0561,-0.0313,-0.0110,0.0183,-0.0073,-31.0200,-10.3200,-33.0000,10240.0000,32.85452624,35.27952279,0.0,
13.2720,0.0743,0.4652,0.8873,0.0289,0.0561,-0.0313,-0.0110,0.0183,-0.0073,-31.0200,-10.3200,-33.0000,10240.0000,32.85452624,35.27952279,0.0,
13.2740,0.0743,0.4652,0.8873,0.0289,0.0561,-0.0313,-0.0110,0.0183,-0.0073,-31.2600,-10.5000,-33.0000,10240.0000,32.85452624,35.27952279,0.0,
13.2750,0.0547,0.4691,0.8912,0.0289,0.0561,-0.0313,-0.0110,0.0183,-0.0073,-31.2600,-10.5000,-33.0000,10240.0000,32.85452624,35.27952279,0.0,
13.2760,0.0508,0.4730,0.8912,0.0289,0.0561,-0.0313,-0.0110,0.0183,-0.0073,-31.2600,-10.5000,-33.0000,10240.0000,32.85452624,35.27952279,0.0,
13.2820,0.0508,0.4730,0.8912,0.0289,0.0561,-0.0313,0.0024,0.0550,-0.0244,-31.2600,-10.5000,-33.0000,10240.0000,32.85448719,35.27948528,0.0,
13.2830,0.0508,0.4730,0.8912,-0.1756,0.0187,0.0029,0.0024,0.0550,-0.0244,-31.2600,-10.5000,-33.0000,10240.0000,32.85448719,35.27948528,0.0,
13.3120,0.0586,0.4730,0.8951,-0.1756,0.0187,0.0029,0.0024,0.0550,-0.0244,-31.2600,-10.5000,-33.0000,10240.0000,32.85448719,35.27948528,0.0,
13.3150,0.0586,0.4730,0.8951,-0.1756,0.0187,0.0029,0.0024,0.0550,-0.0244,-31.0800,-10.8000,-33.0000,10240.0000,32.85448719,35.27948528,0.0,
13.3320,0.0586,0.4730,0.8912,-0.1756,0.0187,0.0029,0.0024,0.0550,-0.0244,-31.0800,-10.8000,-33.0000,10240.0000,32.85448719,35.27948528,0.0,
13.3520,0.0625,0.4730,0.8873,-0.1756,0.0187,0.0029,0.0024,0.0550,-0.0244,-31.0800,-10.8000,-33.0000,10240.0000,32.85448719,35.27948528,0.0,
13.3730,0.0625,0.4769,0.8912,-0.1756,0.0187,0.0029,0.0024,0.0550,-0.0244,-31.0800,-10.8000,-33.0000,10240.0000,32.85448719,35.27948528,0.0,
13.4160,0.0625,0.4691,0.8951,-0.1756,0.0187,0.0029,0.0024,0.0550,-0.0244,-31.0800,-10.8000,-33.0000,10240.0000,32.85448719,35.27948528,0.0,
13.4230,0.0665,0.4691,0.8951,-0.1756,0.0187,0.0029,0.0024,0.0550,-0.0244,-31.0800,-10.8000,-33.0000,10240.0000,32.85448719,35.27948528,0.0,
13.4340,0.0704,0.4730,0.8912,-0.1756,0.0187,0.0029,0.0024,0.0550,-0.0244,-31.0800,-10.8000,-33.0000,10240.0000,32.85448719,35.27948528,0.0,
13.4490,0.0704,0.4730,0.8912,-0.1756,0.0187,0.0029,0.0024,0.0550,-0.0244,-31.0800,-10.9200,-33.0000,10240.0000,32.85448719,35.27948528,0.0,
13.4540,0.0782,0.4730,0.8873,-0.1756,0.0187,0.0029,0.0024,0.0550,-0.0244,-31.0800,-10.9200,-33.0000,10240.0000,32.85448719,35.27948528,0.0,
13.5330,0.0782,0.4691,0.8951,-0.1756,0.0187,0.0029,0.0024,0.0550,-0.0244,-31.0800,-10.9200,-33.0000,10240.0000,32.85448719,35.27948528,0.0,
13.5340,0.0782,0.4691,0.8951,-0.1756,0.0187,0.0029,-0.0244,0.0122,0.0305,-31.0800,-10.9200,-33.0000,10240.0000,32.85448719,35.27948528,0.0,
13.5360,0.0782,0.4691,0.8951,0.0691,-0.0381,0.0151,-0.0244,0.0122,0.0305,-31.0800,-10.9200,-33.0000,10240.0000,32.85448719,35.27948528,0.0,
13.5390,0.0743,0.4652,0.8990,0.0691,-0.0381,0.0151,-0.0244,0.0122,0.0305,-31.0800,-10.9200,-33.0000,10240.0000,32.85448719,35.27948528,0.0,
13.5460,0.0743,0.4652,0.8990,0.0691,-0.0381,0.0151,-0.0244,0.0122,0.0305,-31.0800,-10.9200,-33.0600,10240.0000,32.85448719,35.27948528,0.0,
13.5480,0.0665,0.4652,0.9069,0.0691,-0.0381,0.0151,-0.0244,0.0122,0.0305,-31.0800,-10.9200,-33.0600,10240.0000,32.85448719,35.27948528,0.0,
13.5490,0.0665,0.4691,0.8990,0.0691,-0.0381,0.0151,-0.0244,0.0122,0.0305,-31.0800,-10.9200,-33.0600,10240.0000,32.85448719,35.27948528,0.0,
13.5520,0.0704,0.4691,0.8912,0.0691,-0.0381,0.0151,-0.0244,0.0122,0.0305,-31.0800,-10.9200,-33.0600,10240.0000,32.85448719,35.27948528,0.0,
13.5720,0.0743,0.4691,0.8795,0.0691,-0.0381,0.0151,-0.0244,0.0122,0.0305,-31.0800,-10.9200,-33.0600,10240.0000,32.85448719,35.27948528,0.0,
13.6120,0.0782,0.4691,0.8834,0.0691,-0.0381,0.0151,-0.0244,0.0122,0.0305,-31.0800,-10.9200,-33.0600,10240.0000,32.85448719,35.27948528,0.0,
13.6320,0.0821,0.4730,0.8873,0.0691,-0.0381,0.0151,-0.0244,0.0122,0.0305,-31.0800,-10.9200,-33.0600,10240.0000,32.85448719,35.27948528,0.0,
13.6470,0.0821,0.4730,0.8873,0.0691,-0.0381,0.0151,-0.0244,0.0122,0.0305,-30.9600,-10.8600,-33.0600,10240.0000,32.85448719,35.27948528,0.0,
13.6530,0.0782,0.4730,0.8912,0.0691,-0.0381,0.0151,-0.0244,0.0122,0.0305,-30.9600,-10.8600,-33.0600,10240.0000,32.85448719,35.27948528,0.0,
13.6720,0.0782,0.4769,0.8912,0.0691,-0.0381,0.0151,-0.0244,0.0122,0.0305,-30.9600,-10.8600,-33.0600,10240.0000,32.85448719,35.27948528,0.0,
13.6820,0.0782,0.4769,0.8912,0.0691,-0.0381,0.0151,0.0012,-0.0220,0.0305,-30.9600,-10.8600,-33.0600,10240.0000,32.85448719,35.27948528,0.0,
13.6830,0.0782,0.4769,0.8912,0.0567,0.0238,-0.0169,0.0012,-0.0220,0.0305,-30.9600,-10.8600,-33.0600,10240.0000,32.85448719,35.27948528,0.0,
13.6960,0.0821,0.4808,0.8834,0.0567,0.0238,-0.0169,0.0012,-0.0220,0.0305,-30.9600,-10.8600,-33.0600,10240.0000,32.85448719,35.27948528,0.0,
13.7120,0.0860,0.4769,0.8717,0.0567,0.0238,-0.0169,0.0012,-0.0220,0.0305,-30.9600,-10.8600,-33.0600,10240.0000,32.85448719,35.27948528,0.0,
13.7140,0.0860,0.4769,0.8717,0.0567,0.0238,-0.0169,0.0012,-0.0220,0.0305,-31.0800,-10.8600,-32.8800,10240.0000,32.85448719,35.27948528,0.0,
13.7320,0.0860,0.4769,0.8678,0.0567,0.0238,-0.0169,0.0012,-0.0220,0.0305,-31.0800,-10.8600,-32.8800,10240.0000,32.85448719,35.27948528,0.0,
13.7520,0.0860,0.4652,0.8795,0.0567,0.0238,-0.0169,0.0012,-0.0220,0.0305,-31.0800,-10.8600,-32.8800,10240.0000,32.85448719,35.27948528,0.0,
13.7720,0.0860,0.4691,0.8834,0.0567,0.0238,-0.0169,0.0012,-0.0220,0.0305,-31.0800,-10.8600,-32.8800,10240.0000,32.85448719,35.27948528,0.0,
13.7920,0.0860,0.4691,0.8873,0.0567,0.0238,-0.0169,0.0012,-0.0220,0.0305,-31.0800,-10.8600,-32.8800,10240.0000,32.85448719,35.27948528,0.0,
14.1890,0.0899,0.4300,0.9147,0.0567,0.0238,-0.0169,0.0012,-0.0220,0.0305,-31.0800,-10.8600,-32.8800,10240.0000,32.85448719,35.27948528,0.0,
14.1910,0.1016,0.4886,0.8678,0.0567,0.0238,-0.0169,0.0012,-0.0220,0.0305,-31.0800,-10.8600,-32.8800,10240.0000,32.85448719,35.27948528,0.0,
14.1930,0.1016,0.4886,0.8678,0.0567,0.0238,-0.0169,0.0012,-0.0220,0.0305,-31.3200,-10.6200,-33.0600,10240.0000,32.85448719,35.27948528,0.0,
14.1940,0.0899,0.4691,0.8834,0.0567,0.0238,-0.0169,0.0012,-0.0220,0.0305,-31.3200,-10.6200,-33.0600,10240.0000,32.85448719,35.27948528,0.0,
14.1960,0.0899,0.4573,0.9030,0.0567,0.0238,-0.0169,0.0012,-0.0220,0.0305,-31.3200,-10.6200,-33.0600,10240.0000,32.85448719,35.27948528,0.0,
14.1980,0.0899,0.4573,0.9030,0.0567,0.0238,-0.0169,0.0208,-0.0550,-0.0599,-31.3200,-10.6200,-33.0600,10240.0000,32.85448719,35.27948528,0.0,
14.1990,0.0899,0.4573,0.9030,0.1031,-0.1766,0.0817,0.0208,-0.0550,-0.0599,-31.3200,-10.6200,-33.0600,10240.0000,32.85448719,35.27948528,0.0,
14.2010,0.0821,0.4808,0.8990,0.1031,-0.1766,0.0817,0.0208,-0.0550,-0.0599,-31.3200,-10.6200,-33.0600,10240.0000,32.85448719,35.27948528,0.0,
14.2030,0.0821,0.4808,0.8990,0.1031,-0.1766,0.0817,0.0208,-0.0550,-0.0599,-31.5000,-10.5600,-33.3600,10240.0000,32.85448719,35.27948528,0.0,
