
time,gfx,gFy,gFz,ax,ay,az,wx,wy,wz,Bx,By,Bz,I,Latitude,Longitude,Speed (m/s),
0.0110,-0.0235,0.3283,0.9577,0.1697,-0.1172,0.0390,0.0012,0.2114,-0.0330,21.4200,-30.5400,-28.1400,10240.0000,0.0,0.0,0.0,
0.0120,-0.0274,0.3244,0.9499,0.1697,-0.1172,0.0390,0.0012,0.2114,-0.0330,21.4200,-30.5400,-28.1400,10240.0000,0.0,0.0,0.0,
0.0130,-0.0391,0.3362,0.9420,0.1697,-0.1172,0.0390,0.0012,0.2114,-0.0330,21.4200,-30.5400,-28.1400,10240.0000,0.0,0.0,0.0,
0.0300,-0.0391,0.3362,0.9420,0.1697,-0.1172,0.0390,0.0012,0.2114,-0.0330,22.1400,-30.9000,-27.6600,10240.0000,0.0,0.0,0.0,
0.0320,-0.0391,0.3283,0.9460,0.1697,-0.1172,0.0390,0.0012,0.2114,-0.0330,22.1400,-30.9000,-27.6600,10240.0000,0.0,0.0,0.0,
0.0330,-0.0391,0.3283,0.9460,0.1697,-0.1172,0.0390,-0.0012,-0.0208,-0.0208,22.1400,-30.9000,-27.6600,10240.0000,0.0,0.0,0.0,
0.0350,-0.0391,0.3283,0.9460,0.1061,0.0228,-0.0074,-0.0012,-0.0208,-0.0208,22.1400,-30.9000,-27.6600,10240.0000,0.0,0.0,0.0,
0.0530,-0.0352,0.3283,0.9499,0.1061,0.0228,-0.0074,-0.0012,-0.0208,-0.0208,22.1400,-30.9000,-27.6600,10240.0000,0.0,0.0,0.0,
0.0750,-0.0313,0.3283,0.9499,0.1061,0.0228,-0.0074,-0.0012,-0.0208,-0.0208,22.1400,-30.9000,-27.6600,10240.0000,0.0,0.0,0.0,
0.0910,-0.0352,0.3283,0.9460,0.1061,0.0228,-0.0074,-0.0012,-0.0208,-0.0208,22.1400,-30.9000,-27.6600,10240.0000,0.0,0.0,0.0,
0.0920,-0.0352,0.3283,0.9460,0.1061,0.0228,-0.0074,-0.0012,-0.0208,-0.0208,23.1000,-31.3200,-26.9400,10240.0000,0.0,0.0,0.0,
0.1080,-0.0352,0.3244,0.9499,0.1061,0.0228,-0.0074,-0.0012,-0.0208,-0.0208,23.1000,-31.3200,-26.9400,10240.0000,0.0,0.0,0.0,
0.1490,-0.0391,0.3244,0.9538,0.1061,0.0228,-0.0074,-0.0012,-0.0208,-0.0208,23.1000,-31.3200,-26.9400,10240.0000,0.0,0.0,0.0,
0.1730,-0.0352,0.3205,0.9538,0.1061,0.0228,-0.0074,-0.0012,-0.0208,-0.0208,23.1000,-31.3200,-26.9400,10240.0000,0.0,0.0,0.0,
0.1900,-0.0352,0.3205,0.9577,0.1061,0.0228,-0.0074,-0.0012,-0.0208,-0.0208,23.1000,-31.3200,-26.9400,10240.0000,0.0,0.0,0.0,
0.2070,-0.0352,0.3244,0.9577,0.1061,0.0228,-0.0074,-0.0012,-0.0208,-0.0208,23.1000,-31.3200,-26.9400,10240.0000,0.0,0.0,0.0,
0.2240,-0.0352,0.3244,0.9577,0.1061,0.0228,-0.0074,-0.0012,-0.0208,-0.0208,23.8800,-31.7400,-26.0400,10240.0000,0.0,0.0,0.0,
0.2400,-0.0313,0.3283,0.9460,0.1061,0.0228,-0.0074,-0.0012,-0.0208,-0.0208,23.8800,-31.7400,-26.0400,10240.0000,0.0,0.0,0.0,
0.2410,-0.0313,0.3283,0.9460,0.1061,0.0228,-0.0074,0.0049,-0.0330,0.0024,23.8800,-31.7400,-26.0400,10240.0000,0.0,0.0,0.0,
0.2430,-0.0313,0.3283,0.9460,0.0416,-0.0105,0.0025,0.0049,-0.0330,0.0024,23.8800,-31.7400,-26.0400,10240.0000,0.0,0.0,0.0,
0.2560,-0.0235,0.3283,0.9381,0.0416,-0.0105,0.0025,0.0049,-0.0330,0.0024,23.8800,-31.7400,-26.0400,10240.0000,0.0,0.0,0.0,
0.2730,-0.0195,0.3283,0.9420,0.0416,-0.0105,0.0025,0.0049,-0.0330,0.0024,23.8800,-31.7400,-26.0400,10240.0000,0.0,0.0,0.0,
0.2890,-0.0195,0.3323,0.9381,0.0416,-0.0105,0.0025,0.0049,-0.0330,0.0024,23.8800,-31.7400,-26.0400,10240.0000,0.0,0.0,0.0,
0.2910,-0.0195,0.3323,0.9381,0.0416,-0.0105,0.0025,0.0049,-0.0330,0.0024,24.7800,-32.1000,-25.4400,10240.0000,0.0,0.0,0.0,
0.3100,-0.0117,0.3283,0.9381,0.0416,-0.0105,0.0025,0.0049,-0.0330,0.0024,24.7800,-32.1000,-25.4400,10240.0000,0.0,0.0,0.0,
0.3290,-0.0156,0.3205,0.9538,0.0416,-0.0105,0.0025,0.0049,-0.0330,0.0024,24.7800,-32.1000,-25.4400,10240.0000,0.0,0.0,0.0,
0.3460,-0.0235,0.3166,0.9577,0.0416,-0.0105,0.0025,0.0049,-0.0330,0.0024,24.7800,-32.1000,-25.4400,10240.0000,0.0,0.0,0.0,
0.3660,-0.0195,0.3127,0.9577,0.0416,-0.0105,0.0025,0.0049,-0.0330,0.0024,24.7800,-32.1000,-25.4400,10240.0000,0.0,0.0,0.0,
0.3960,-0.0156,0.3166,0.9538,0.0416,-0.0105,0.0025,0.0049,-0.0330,0.0024,24.7800,-32.1000,-25.4400,10240.0000,0.0,0.0,0.0,
0.4190,-0.0156,0.3088,0.9538,0.0416,-0.0105,0.0025,0.0049,-0.0330,0.0024,24.7800,-32.1000,-25.4400,10240.0000,0.0,0.0,0.0,
0.4220,-0.0156,0.3088,0.9538,0.0416,-0.0105,0.0025,0.0049,-0.0330,0.0024,25.0800,-32.4600,-25.0800,10240.0000,0.0,0.0,0.0,
0.4250,-0.0156,0.3088,0.9538,0.0416,-0.0105,0.0025,-0.0489,-0.0513,0.0086,25.0800,-32.4600,-25.0800,10240.0000,0.0,0.0,0.0,
0.4260,-0.0156,0.3088,0.9538,0.0318,-0.1476,0.0464,-0.0489,-0.0513,0.0086,25.0800,-32.4600,-25.0800,10240.0000,0.0,0.0,0.0,
0.4360,-0.0117,0.3127,0.9538,0.0318,-0.1476,0.0464,-0.0489,-0.0513,0.0086,25.0800,-32.4600,-25.0800,10240.0000,0.0,0.0,0.0,
0.4560,-0.0078,0.3049,0.9499,0.0318,-0.1476,0.0464,-0.0489,-0.0513,0.0086,25.0800,-32.4600,-25.0800,10240.0000,0.0,0.0,0.0,
0.4760,-0.0078,0.3010,0.9538,0.0318,-0.1476,0.0464,-0.0489,-0.0513,0.0086,25.0800,-32.4600,-25.0800,10240.0000,0.0,0.0,0.0,
0.4890,-0.0078,0.3010,0.9538,0.0318,-0.1476,0.0464,-0.0489,-0.0513,0.0086,25.5000,-32.5800,-24.4200,10240.0000,0.0,0.0,0.0,
0.4960,-0.0117,0.3010,0.9616,0.0318,-0.1476,0.0464,-0.0489,-0.0513,0.0086,25.5000,-32.5800,-24.4200,10240.0000,0.0,0.0,0.0,
0.5170,-0.0117,0.3049,0.9616,0.0318,-0.1476,0.0464,-0.0489,-0.0513,0.0086,25.5000,-32.5800,-24.4200,10240.0000,0.0,0.0,0.0,
0.5420,-0.0117,0.3088,0.9538,0.0318,-0.1476,0.0464,-0.0489,-0.0513,0.0086,25.5000,-32.5800,-24.4200,10240.0000,0.0,0.0,0.0,
0.6420,-0.0156,0.3088,0.9538,0.0318,-0.1476,0.0464,-0.0489,-0.0513,0.0086,25.5000,-32.5800,-24.4200,10240.0000,0.0,0.0,0.0,
0.6430,-0.0195,0.3127,0.9499,0.0318,-0.1476,0.0464,-0.0489,-0.0513,0.0086,25.5000,-32.5800,-24.4200,10240.0000,0.0,0.0,0.0,
0.6600,-0.0156,0.3127,0.9460,0.0318,-0.1476,0.0464,-0.0489,-0.0513,0.0086,25.5000,-32.5800,-24.4200,10240.0000,0.0,0.0,0.0,
0.6760,-0.0195,0.3127,0.9460,0.0318,-0.1476,0.0464,-0.0489,-0.0513,0.0086,25.5000,-32.5800,-24.4200,10240.0000,0.0,0.0,0.0,
0.6780,-0.0195,0.3127,0.9460,0.0318,-0.1476,0.0464,-0.0745,-0.0513,-0.0281,25.5000,-32.5800,-24.4200,10240.0000,0.0,0.0,0.0,
0.6920,-0.0195,0.3127,0.9460,-0.1103,-0.0104,-0.0001,-0.0745,-0.0513,-0.0281,25.5000,-32.5800,-24.4200,10240.0000,0.0,0.0,0.0,
0.6950,-0.0195,0.3088,0.9538,-0.1103,-0.0104,-0.0001,-0.0745,-0.0513,-0.0281,25.5000,-32.5800,-24.4200,10240.0000,0.0,0.0,0.0,
0.6970,-0.0195,0.3088,0.9538,-0.1103,-0.0104,-0.0001,-0.0745,-0.0513,-0.0281,25.9200,-32.8800,-23.8200,10240.0000,0.0,0.0,0.0,
0.6990,-0.0117,0.3049,0.9577,-0.1103,-0.0104,-0.0001,-0.0745,-0.0513,-0.0281,25.9200,-32.8800,-23.8200,10240.0000,0.0,0.0,0.0,
0.7010,-0.0117,0.3127,0.9655,-0.1103,-0.0104,-0.0001,-0.0745,-0.0513,-0.0281,25.9200,-32.8800,-23.8200,10240.0000,0.0,0.0,0.0,
0.8970,-0.0117,0.3127,0.9655,-0.1103,-0.0104,-0.0001,-0.0745,-0.0513,-0.0281,26.1000,-33.0600,-23.1600,10240.0000,0.0,0.0,0.0,
0.8990,-0.0117,0.3127,0.9616,-0.1103,-0.0104,-0.0001,-0.0745,-0.0513,-0.0281,26.1000,-33.0600,-23.1600,10240.0000,0.0,0.0,0.0,
0.9010,-0.0078,0.3127,0.9577,-0.1103,-0.0104,-0.0001,-0.0745,-0.0513,-0.0281,26.1000,-33.0600,-23.1600,10240.0000,0.0,0.0,0.0,
0.9020,-0.0078,0.3127,0.9577,-0.1103,-0.0104,-0.0001,-0.0745,-0.0513,-0.0281,26.2200,-33.3600,-22.8000,10240.0000,0.0,0.0,0.0,
0.9040,0.0078,0.3127,0.9577,-0.1103,-0.0104,-0.0001,-0.0745,-0.0513,-0.0281,26.2200,-33.3600,-22.8000,10240.0000,0.0,0.0,0.0,
0.9050,0.0078,0.3088,0.9577,-0.1103,-0.0104,-0.0001,-0.0745,-0.0513,-0.0281,26.2200,-33.3600,-22.8000,10240.0000,0.0,0.0,0.0,
0.9070,0.0156,0.3049,0.9577,-0.1103,-0.0104,-0.0001,-0.0745,-0.0513,-0.0281,26.2200,-33.3600,-22.8000,10240.0000,0.0,0.0,0.0,
0.9090,0.0235,0.3010,0.9616,-0.1103,-0.0104,-0.0001,-0.0745,-0.0513,-0.0281,26.2200,-33.3600,-22.8000,10240.0000,0.0,0.0,0.0,
0.9100,0.0235,0.3010,0.9616,-0.1103,-0.0104,-0.0001,-0.1087,-0.0476,-0.0342,26.2200,-33.3600,-22.8000,10240.0000,0.0,0.0,0.0,
0.9120,0.0235,0.3010,0.9616,0.1628,-0.0289,0.0051,-0.1087,-0.0476,-0.0342,26.2200,-33.3600,-22.8000,10240.0000,0.0,0.0,0.0,
0.9130,0.0235,0.2971,0.9733,0.1628,-0.0289,0.0051,-0.1087,-0.0476,-0.0342,26.2200,-33.3600,-22.8000,10240.0000,0.0,0.0,0.0,
0.9140,0.0195,0.3010,0.9694,0.1628,-0.0289,0.0051,-0.1087,-0.0476,-0.0342,26.2200,-33.3600,-22.8000,10240.0000,0.0,0.0,0.0,
0.9160,0.0195,0.3010,0.9694,0.1628,-0.0289,0.0051,-0.1087,-0.0476,-0.0342,25.7400,-33.3600,-22.9200,10240.0000,0.0,0.0,0.0,
0.9180,0.0156,0.2971,0.9655,0.1628,-0.0289,0.0051,-0.1087,-0.0476,-0.0342,25.7400,-33.3600,-22.9200,10240.0000,0.0,0.0,0.0,
0.9260,0.0195,0.2932,0.9655,0.1628,-0.0289,0.0051,-0.1087,-0.0476,-0.0342,25.7400,-33.3600,-22.9200,10240.0000,0.0,0.0,0.0,
0.9460,0.0156,0.2932,0.9655,0.1628,-0.0289,0.0051,-0.1087,-0.0476,-0.0342,25.7400,-33.3600,-22.9200,10240.0000,0.0,0.0,0.0,
0.9660,0.0117,0.2932,0.9616,0.1628,-0.0289,0.0051,-0.1087,-0.0476,-0.0342,25.7400,-33.3600,-22.9200,10240.0000,0.0,0.0,0.0,
0.9870,0.0039,0.2971,0.9577,0.1628,-0.0289,0.0051,-0.1087,-0.0476,-0.0342,25.7400,-33.3600,-22.9200,10240.0000,0.0,0.0,0.0,
1.0110,0.0039,0.2932,0.9538,0.1628,-0.0289,0.0051,-0.1087,-0.0476,-0.0342,25.7400,-33.3600,-22.9200,10240.0000,0.0,0.0,0.0,
1.0270,0.0039,0.2932,0.9538,0.1628,-0.0289,0.0051,0.0281,-0.1148,-0.0501,25.7400,-33.3600,-22.9200,10240.0000,0.0,0.0,0.0,
1.0290,0.0039,0.2932,0.9538,-0.1194,-0.0365,0.0097,0.0281,-0.1148,-0.0501,25.7400,-33.3600,-22.9200,10240.0000,0.0,0.0,0.0,
1.0310,0.0039,0.2932,0.9538,-0.1194,-0.0365,0.0097,0.0281,-0.1148,-0.0501,25.3200,-33.0600,-23.5200,10240.0000,0.0,0.0,0.0,
1.0470,0.0000,0.2971,0.9538,-0.1194,-0.0365,0.0097,0.0281,-0.1148,-0.0501,25.3200,-33.0600,-23.5200,10240.0000,0.0,0.0,0.0,
1.0670,-0.0039,0.2971,0.9577,-0.1194,-0.0365,0.0097,0.0281,-0.1148,-0.0501,25.3200,-33.0600,-23.5200,10240.0000,0.0,0.0,0.0,
1.1030,-0.0078,0.3010,0.9538,-0.1194,-0.0365,0.0097,0.0281,-0.1148,-0.0501,25.3200,-33.0600,-23.5200,10240.0000,0.0,0.0,0.0,
1.1090,-0.0078,0.3010,0.9538,-0.1194,-0.0365,0.0097,0.0281,-0.1148,-0.0501,24.7800,-32.6400,-24.0600,10240.0000,0.0,0.0,0.0,
1.1150,-0.0078,0.3010,0.9577,-0.1194,-0.0365,0.0097,0.0281,-0.1148,-0.0501,24.7800,-32.6400,-24.0600,10240.0000,0.0,0.0,0.0,
1.1830,-0.0078,0.3049,0.9616,-0.1194,-0.0365,0.0097,0.0281,-0.1148,-0.0501,24.7800,-32.6400,-24.0600,10240.0000,0.0,0.0,0.0,
1.1940,-0.0117,0.3010,0.9616,-0.1194,-0.0365,0.0097,0.0281,-0.1148,-0.0501,24.7800,-32.6400,-24.0600,10240.0000,0.0,0.0,0.0,
1.2010,-0.0117,0.3010,0.9577,-0.1194,-0.0365,0.0097,0.0281,-0.1148,-0.0501,24.7800,-32.6400,-24.0600,10240.0000,0.0,0.0,0.0,
1.2110,-0.0078,0.2971,0.9616,-0.1194,-0.0365,0.0097,0.0281,-0.1148,-0.0501,24.7800,-32.6400,-24.0600,10240.0000,0.0,0.0,0.0,
1.2310,-0.0039,0.3049,0.9577,-0.1194,-0.0365,0.0097,0.0281,-0.1148,-0.0501,24.7800,-32.6400,-24.0600,10240.0000,0.0,0.0,0.0,
1.2400,-0.0039,0.3049,0.9577,-0.1194,-0.0365,0.0097,0.0061,0.0281,-0.0098,24.7800,-32.6400,-24.0600,10240.0000,0.0,0.0,0.0,
1.2410,-0.0039,0.3049,0.9577,-0.2075,0.0212,-0.0105,0.0061,0.0281,-0.0098,24.7800,-32.6400,-24.0600,10240.0000,0.0,0.0,0.0,
1.2430,-0.0039,0.3049,0.9577,-0.2075,0.0212,-0.0105,0.0061,0.0281,-0.0098,24.3600,-32.2800,-24.4200,10240.0000,0.0,0.0,0.0,
1.2460,0.0000,0.3049,0.9538,-0.2075,0.0212,-0.0105,0.0061,0.0281,-0.0098,24.3600,-32.2800,-24.4200,10240.0000,0.0,0.0,0.0,
1.2940,-0.0039,0.2971,0.9772,-0.2075,0.0212,-0.0105,0.0061,0.0281,-0.0098,24.3600,-32.2800,-24.4200,10240.0000,0.0,0.0,0.0,
1.2960,-0.0039,0.2971,0.9772,-0.2075,0.0212,-0.0105,0.0061,0.0281,-0.0098,23.9400,-32.1600,-24.7200,10240.0000,0.0,0.0,0.0,
1.3070,0.0000,0.2971,0.9733,-0.2075,0.0212,-0.0105,0.0061,0.0281,-0.0098,23.9400,-32.1600,-24.7200,10240.0000,0.0,0.0,0.0,
1.3270,0.0000,0.3010,0.9616,-0.2075,0.0212,-0.0105,0.0061,0.0281,-0.0098,23.9400,-32.1600,-24.7200,10240.0000,0.0,0.0,0.0,
1.3480,0.0000,0.3010,0.9538,-0.2075,0.0212,-0.0105,0.0061,0.0281,-0.0098,23.9400,-32.1600,-24.7200,10240.0000,0.0,0.0,0.0,
1.3680,0.0000,0.3049,0.9577,-0.2075,0.0212,-0.0105,0.0061,0.0281,-0.0098,23.9400,-32.1600,-24.7200,10240.0000,0.0,0.0,0.0,
1.3940,-0.0039,0.3049,0.9577,-0.2075,0.0212,-0.0105,0.0061,0.0281,-0.0098,23.9400,-32.1600,-24.7200,10240.0000,0.0,0.0,0.0,
1.4100,0.0000,0.3049,0.9577,-0.2075,0.0212,-0.0105,0.0061,0.0281,-0.0098,23.9400,-32.1600,-24.7200,10240.0000,0.0,0.0,0.0,
1.4330,0.0000,0.3049,0.9577,-0.2075,0.0212,-0.0105,0.0061,0.0281,-0.0098,23.4600,-32.0400,-25.1400,10240.0000,0.0,0.0,0.0,
1.4380,0.0039,0.3049,0.9616,-0.2075,0.0212,-0.0105,0.0061,0.0281,-0.0098,23.4600,-32.0400,-25.1400,10240.0000,0.0,0.0,0.0,
1.4600,0.0039,0.3049,0.9616,-0.2075,0.0212,-0.0105,0.0086,0.0183,-0.0122,23.4600,-32.0400,-25.1400,10240.0000,0.0,0.0,0.0,
1.5060,0.0039,0.3049,0.9616,-0.1123,0.0005,-0.0043,0.0086,0.0183,-0.0122,23.4600,-32.0400,-25.1400,10240.0000,0.0,0.0,0.0,
1.5070,0.0000,0.3088,0.9616,-0.1123,0.0005,-0.0043,0.0086,0.0183,-0.0122,23.4600,-32.0400,-25.1400,10240.0000,0.0,0.0,0.0,
1.5080,0.0000,0.3088,0.9616,-0.1123,0.0005,-0.0043,0.0086,0.0183,-0.0122,23.4600,-31.8000,-25.7400,10240.0000,0.0,0.0,0.0,
1.7310,-0.0078,0.3088,0.9694,-0.1123,0.0005,-0.0043,0.0086,0.0183,-0.0122,23.4600,-31.8000,-25.7400,10240.0000,0.0,0.0,0.0,
1.7320,-0.0078,0.3127,0.9694,-0.1123,0.0005,-0.0043,0.0086,0.0183,-0.0122,23.4600,-31.8000,-25.7400,10240.0000,0.0,0.0,0.0,
1.7330,-0.0039,0.3127,0.9655,-0.1123,0.0005,-0.0043,0.0086,0.0183,-0.0122,23.4600,-31.8000,-25.7400,10240.0000,0.0,0.0,0.0,
1.7340,0.0000,0.3088,0.9538,-0.1123,0.0005,-0.0043,0.0086,0.0183,-0.0122,23.4600,-31.8000,-25.7400,10240.0000,0.0,0.0,0.0,
1.7350,-0.0039,0.3088,0.9616,-0.1123,0.0005,-0.0043,0.0086,0.0183,-0.0122,23.4600,-31.8000,-25.7400,10240.0000,0.0,0.0,0.0,
1.7440,0.0000,0.3088,0.9577,-0.1123,0.0005,-0.0043,0.0086,0.0183,-0.0122,23.4600,-31.8000,-25.7400,10240.0000,0.0,0.0,0.0,
1.7450,-0.0039,0.3088,0.9538,-0.1123,0.0005,-0.0043,0.0086,0.0183,-0.0122,23.4600,-31.8000,-25.7400,10240.0000,0.0,0.0,0.0,
1.7460,-0.0039,0.3088,0.9538,-0.1123,0.0005,-0.0043,0.0086,0.0183,-0.0122,23.1000,-31.6800,-25.9800,10240.0000,0.0,0.0,0.0,
1.7510,-0.0039,0.3088,0.9538,-0.1123,0.0005,-0.0043,0.0110,0.0330,-0.0428,23.1000,-31.6800,-25.9800,10240.0000,0.0,0.0,0.0,
1.7520,-0.0039,0.3088,0.9538,-0.1679,0.0385,-0.0157,0.0110,0.0330,-0.0428,23.1000,-31.6800,-25.9800,10240.0000,0.0,0.0,0.0,
1.7540,-0.0039,0.3127,0.9499,-0.1679,0.0385,-0.0157,0.0110,0.0330,-0.0428,23.1000,-31.6800,-25.9800,10240.0000,0.0,0.0,0.0,
1.7550,-0.0078,0.3166,0.9577,-0.1679,0.0385,-0.0157,0.0110,0.0330,-0.0428,23.1000,-31.6800,-25.9800,10240.0000,0.0,0.0,0.0,
1.7590,-0.0117,0.3166,0.9538,-0.1679,0.0385,-0.0157,0.0110,0.0330,-0.0428,23.1000,-31.6800,-25.9800,10240.0000,0.0,0.0,0.0,
1.7600,-0.0117,0.3166,0.9538,-0.1679,0.0385,-0.0157,0.0110,0.0330,-0.0428,23.7000,-31.6200,-25.2600,10240.0000,0.0,0.0,0.0,
1.7620,-0.0117,0.3166,0.9499,-0.1679,0.0385,-0.0157,0.0110,0.0330,-0.0428,23.7000,-31.6200,-25.2600,10240.0000,0.0,0.0,0.0,
1.7660,-0.0078,0.3166,0.9499,-0.1679,0.0385,-0.0157,0.0110,0.0330,-0.0428,23.7000,-31.6200,-25.2600,10240.0000,0.0,0.0,0.0,
1.7860,-0.0078,0.3127,0.9538,-0.1679,0.0385,-0.0157,0.0110,0.0330,-0.0428,23.7000,-31.6200,-25.2600,10240.0000,0.0,0.0,0.0,
1.8060,-0.0039,0.3088,0.9538,-0.1679,0.0385,-0.0157,0.0110,0.0330,-0.0428,23.7000,-31.6200,-25.2600,10240.0000,0.0,0.0,0.0,
1.8220,-0.0039,0.3088,0.9538,-0.1679,0.0385,-0.0157,0.0110,0.0330,-0.0428,24.6600,-32.0400,-24.1800,10240.0000,0.0,0.0,0.0,
1.8260,-0.0078,0.3088,0.9577,-0.1679,0.0385,-0.0157,0.0110,0.0330,-0.0428,24.6600,-32.0400,-24.1800,10240.0000,0.0,0.0,0.0,
1.8280,-0.0078,0.3088,0.9577,-0.1679,0.0385,-0.0157,0.0061,-0.0061,0.0012,24.6600,-32.0400,-24.1800,10240.0000,0.0,0.0,0.0,
1.8290,-0.0078,0.3088,0.9577,-0.1882,0.0204,-0.0084,0.0061,-0.0061,0.0012,24.6600,-32.0400,-24.1800,10240.0000,0.0,0.0,0.0,
1.8460,-0.0078,0.3088,0.9616,-0.1882,0.0204,-0.0084,0.0061,-0.0061,0.0012,24.6600,-32.0400,-24.1800,10240.0000,0.0,0.0,0.0,
1.8660,-0.0078,0.3049,0.9616,-0.1882,0.0204,-0.0084,0.0061,-0.0061,0.0012,24.6600,-32.0400,-24.1800,10240.0000,0.0,0.0,0.0,
1.8880,-0.0039,0.3088,0.9538,-0.1882,0.0204,-0.0084,0.0061,-0.0061,0.0012,24.6600,-32.0400,-24.1800,10240.0000,0.0,0.0,0.0,
1.8890,-0.0039,0.3088,0.9538,-0.1882,0.0204,-0.0084,0.0061,-0.0061,0.0012,25.6200,-32.5200,-22.8600,10240.0000,0.0,0.0,0.0,
1.9260,-0.0039,0.3127,0.9577,-0.1882,0.0204,-0.0084,0.0061,-0.0061,0.0012,25.6200,-32.5200,-22.8600,10240.0000,0.0,0.0,0.0,
1.9740,-0.0039,0.3127,0.9616,-0.1882,0.0204,-0.0084,0.0061,-0.0061,0.0012,25.6200,-32.5200,-22.8600,10240.0000,0.0,0.0,0.0,
1.9910,-0.0039,0.3127,0.9655,-0.1882,0.0204,-0.0084,0.0061,-0.0061,0.0012,25.6200,-32.5200,-22.8600,10240.0000,0.0,0.0,0.0,
2.0240,-0.0039,0.3127,0.9655,-0.1882,0.0204,-0.0084,0.0061,-0.0061,0.0012,26.7600,-32.7000,-21.6600,10240.0000,0.0,0.0,0.0,
2.0400,0.0000,0.3127,0.9616,-0.1882,0.0204,-0.0084,0.0061,-0.0061,0.0012,26.7600,-32.7000,-21.6600,10240.0000,0.0,0.0,0.0,
2.0410,0.0000,0.3127,0.9616,-0.1882,0.0204,-0.0084,0.0159,0.0464,-0.0110,26.7600,-32.7000,-21.6600,10240.0000,0.0,0.0,0.0,
2.0420,0.0000,0.3127,0.9616,-0.1141,0.0359,-0.0114,0.0159,0.0464,-0.0110,26.7600,-32.7000,-21.6600,10240.0000,0.0,0.0,0.0,
2.0560,-0.0039,0.3127,0.9577,-0.1141,0.0359,-0.0114,0.0159,0.0464,-0.0110,26.7600,-32.7000,-21.6600,10240.0000,0.0,0.0,0.0,
2.0730,-0.0078,0.3088,0.9616,-0.1141,0.0359,-0.0114,0.0159,0.0464,-0.0110,26.7600,-32.7000,-21.6600,10240.0000,0.0,0.0,0.0,
2.0890,-0.0039,0.3049,0.9616,-0.1141,0.0359,-0.0114,0.0159,0.0464,-0.0110,26.7600,-32.7000,-21.6600,10240.0000,0.0,0.0,0.0,
2.0900,-0.0039,0.3049,0.9616,-0.1141,0.0359,-0.0114,0.0159,0.0464,-0.0110,27.7200,-32.7000,-20.7600,10240.0000,0.0,0.0,0.0,
2.1110,-0.0078,0.3049,0.9655,-0.1141,0.0359,-0.0114,0.0159,0.0464,-0.0110,27.7200,-32.7000,-20.7600,10240.0000,0.0,0.0,0.0,
2.1260,-0.0156,0.3010,0.9655,-0.1141,0.0359,-0.0114,0.0159,0.0464,-0.0110,27.7200,-32.7000,-20.7600,10240.0000,0.0,0.0,0.0,
2.1460,-0.0078,0.3010,0.9577,-0.1141,0.0359,-0.0114,0.0159,0.0464,-0.0110,27.7200,-32.7000,-20.7600,10240.0000,0.0,0.0,0.0,
2.1660,-0.0117,0.3049,0.9499,-0.1141,0.0359,-0.0114,0.0159,0.0464,-0.0110,27.7200,-32.7000,-20.7600,10240.0000,0.0,0.0,0.0,
2.1870,-0.0156,0.3088,0.9460,-0.1141,0.0359,-0.0114,0.0159,0.0464,-0.0110,27.7200,-32.7000,-20.7600,10240.0000,0.0,0.0,0.0,
2.2050,-0.0117,0.3127,0.9460,-0.1141,0.0359,-0.0114,0.0159,0.0464,-0.0110,27.7200,-32.7000,-20.7600,10240.0000,0.0,0.0,0.0,
2.2190,-0.0117,0.3127,0.9460,-0.1141,0.0359,-0.0114,0.0159,0.0464,-0.0110,28.6200,-32.8200,-19.9200,10240.0000,0.0,0.0,0.0,
2.2260,-0.0117,0.3127,0.9499,-0.1141,0.0359,-0.0114,0.0159,0.0464,-0.0110,28.6200,-32.8200,-19.9200,10240.0000,0.0,0.0,0.0,
2.2270,-0.0117,0.3127,0.9499,-0.1141,0.0359,-0.0114,-0.0134,0.0171,-0.0195,28.6200,-32.8200,-19.9200,10240.0000,0.0,0.0,0.0,
2.2280,-0.0117,0.3127,0.9499,-0.1996,0.0604,-0.0199,-0.0134,0.0171,-0.0195,28.6200,-32.8200,-19.9200,10240.0000,0.0,0.0,0.0,
2.2450,-0.0117,0.3088,0.9577,-0.1996,0.0604,-0.0199,-0.0134,0.0171,-0.0195,28.6200,-32.8200,-19.9200,10240.0000,0.0,0.0,0.0,
2.2660,-0.0156,0.3049,0.9694,-0.1996,0.0604,-0.0199,-0.0134,0.0171,-0.0195,28.6200,-32.8200,-19.9200,10240.0000,0.0,0.0,0.0,
2.2850,-0.0156,0.3049,0.9694,-0.1996,0.0604,-0.0199,-0.0134,0.0171,-0.0195,29.3400,-33.0000,-19.0200,10240.0000,0.0,0.0,0.0,
2.4530,-0.0117,0.3049,0.9655,-0.1996,0.0604,-0.0199,-0.0134,0.0171,-0.0195,29.3400,-33.0000,-19.0200,10240.0000,0.0,0.0,0.0,
2.4540,-0.0117,0.3127,0.9616,-0.1996,0.0604,-0.0199,-0.0134,0.0171,-0.0195,29.3400,-33.0000,-19.0200,10240.0000,0.0,0.0,0.0,
2.4550,-0.0117,0.3166,0.9577,-0.1996,0.0604,-0.0199,-0.0134,0.0171,-0.0195,29.3400,-33.0000,-19.0200,10240.0000,0.0,0.0,0.0,
2.4560,-0.0078,0.3127,0.9616,-0.1996,0.0604,-0.0199,-0.0134,0.0171,-0.0195,29.3400,-33.0000,-19.0200,10240.0000,0.0,0.0,0.0,
2.4570,-0.0078,0.3127,0.9655,-0.1996,0.0604,-0.0199,-0.0134,0.0171,-0.0195,29.3400,-33.0000,-19.0200,10240.0000,0.0,0.0,0.0,
2.4580,-0.0117,0.3088,0.9694,-0.1996,0.0604,-0.0199,-0.0134,0.0171,-0.0195,29.3400,-33.0000,-19.0200,10240.0000,0.0,0.0,0.0,
2.4590,-0.0117,0.3088,0.9694,-0.1996,0.0604,-0.0199,-0.0134,0.0171,-0.0195,30.1200,-33.0000,-18.4200,10240.0000,0.0,0.0,0.0,
2.4600,-0.0078,0.3088,0.9694,-0.1996,0.0604,-0.0199,-0.0134,0.0171,-0.0195,30.1200,-33.0000,-18.4200,10240.0000,0.0,0.0,0.0,
2.4610,-0.0078,0.3088,0.9694,-0.1996,0.0604,-0.0199,0.0037,0.0354,0.0086,30.1200,-33.0000,-18.4200,10240.0000,0.0,0.0,0.0,
2.4740,-0.0078,0.3088,0.9694,-0.1269,-0.0184,0.0059,0.0037,0.0354,0.0086,30.1200,-33.0000,-18.4200,10240.0000,0.0,0.0,0.0,
2.4760,-0.0117,0.3088,0.9733,-0.1269,-0.0184,0.0059,0.0037,0.0354,0.0086,30.1200,-33.0000,-18.4200,10240.0000,0.0,0.0,0.0,
2.4770,-0.0156,0.3088,0.9772,-0.1269,-0.0184,0.0059,0.0037,0.0354,0.0086,30.1200,-33.0000,-18.4200,10240.0000,0.0,0.0,0.0,
2.4840,-0.0156,0.3088,0.9772,-0.1269,-0.0184,0.0059,0.0037,0.0354,0.0086,30.4800,-33.1200,-18.3000,10240.0000,0.0,0.0,0.0,
2.4850,-0.0117,0.3127,0.9655,-0.1269,-0.0184,0.0059,0.0037,0.0354,0.0086,30.4800,-33.1200,-18.3000,10240.0000,0.0,0.0,0.0,
2.5050,-0.0117,0.3127,0.9577,-0.1269,-0.0184,0.0059,0.0037,0.0354,0.0086,30.4800,-33.1200,-18.3000,10240.0000,0.0,0.0,0.0,
2.5250,-0.0117,0.3088,0.9577,-0.1269,-0.0184,0.0059,0.0037,0.0354,0.0086,30.4800,-33.1200,-18.3000,10240.0000,0.0,0.0,0.0,
2.5460,-0.0117,0.3127,0.9616,-0.1269,-0.0184,0.0059,0.0037,0.0354,0.0086,30.4800,-33.1200,-18.3000,10240.0000,0.0,0.0,0.0,
2.5660,-0.0078,0.3088,0.9772,-0.1269,-0.0184,0.0059,0.0037,0.0354,0.0086,30.4800,-33.1200,-18.3000,10240.0000,0.0,0.0,0.0,
2.5850,0.0000,0.3088,0.9772,-0.1269,-0.0184,0.0059,0.0037,0.0354,0.0086,30.4800,-33.1200,-18.3000,10240.0000,0.0,0.0,0.0,
2.6060,-0.0078,0.3127,0.9811,-0.1269,-0.0184,0.0059,0.0037,0.0354,0.0086,30.4800,-33.1200,-18.3000,10240.0000,0.0,0.0,0.0,
2.6160,-0.0078,0.3127,0.9811,-0.1269,-0.0184,0.0059,0.0037,0.0354,0.0086,30.3000,-33.0000,-18.4800,10240.0000,0.0,0.0,0.0,
2.6260,0.0078,0.3205,0.9733,-0.1269,-0.0184,0.0059,0.0037,0.0354,0.0086,30.3000,-33.0000,-18.4800,10240.0000,0.0,0.0,0.0,
2.6270,0.0078,0.3205,0.9733,-0.1269,-0.0184,0.0059,0.2590,0.0134,-0.1686,30.3000,-33.0000,-18.4800,10240.0000,0.0,0.0,0.0,
2.6280,0.0078,0.3205,0.9733,0.0826,-0.1153,0.0369,0.2590,0.0134,-0.1686,30.3000,-33.0000,-18.4800,10240.0000,0.0,0.0,0.0,
2.6460,0.0195,0.3323,0.9577,0.0826,-0.1153,0.0369,0.2590,0.0134,-0.1686,30.3000,-33.0000,-18.4800,10240.0000,0.0,0.0,0.0,
2.6660,0.0274,0.3401,0.9577,0.0826,-0.1153,0.0369,0.2590,0.0134,-0.1686,30.3000,-33.0000,-18.4800,10240.0000,0.0,0.0,0.0,
2.6820,0.0274,0.3401,0.9577,0.0826,-0.1153,0.0369,0.2590,0.0134,-0.1686,30.0000,-33.0600,-18.8400,10240.0000,0.0,0.0,0.0,
2.6860,0.0352,0.3440,0.9538,0.0826,-0.1153,0.0369,0.2590,0.0134,-0.1686,30.0000,-33.0600,-18.8400,10240.0000,0.0,0.0,0.0,
2.7060,0.0430,0.3518,0.9460,0.0826,-0.1153,0.0369,0.2590,0.0134,-0.1686,30.0000,-33.0600,-18.8400,10240.0000,0.0,0.0,0.0,
2.7260,0.0508,0.3557,0.9420,0.0826,-0.1153,0.0369,0.2590,0.0134,-0.1686,30.0000,-33.0600,-18.8400,10240.0000,0.0,0.0,0.0,
2.7460,0.0508,0.3635,0.9342,0.0826,-0.1153,0.0369,0.2590,0.0134,-0.1686,30.0000,-33.0600,-18.8400,10240.0000,0.0,0.0,0.0,
2.7660,0.0547,0.3635,0.9381,0.0826,-0.1153,0.0369,0.2590,0.0134,-0.1686,30.0000,-33.0600,-18.8400,10240.0000,0.0,0.0,0.0,
2.7860,0.0430,0.3753,0.9381,0.0826,-0.1153,0.0369,0.2590,0.0134,-0.1686,30.0000,-33.0600,-18.8400,10240.0000,0.0,0.0,0.0,
2.8060,0.0430,0.3792,0.9381,0.0826,-0.1153,0.0369,0.2590,0.0134,-0.1686,30.0000,-33.0600,-18.8400,10240.0000,0.0,0.0,0.0,
2.8140,0.0430,0.3792,0.9381,0.0826,-0.1153,0.0369,0.2590,0.0134,-0.1686,29.4000,-33.2400,-19.2000,10240.0000,0.0,0.0,0.0,
2.8260,0.0430,0.3753,0.9381,0.0826,-0.1153,0.0369,0.2590,0.0134,-0.1686,29.4000,-33.2400,-19.2000,10240.0000,0.0,0.0,0.0,
2.8270,0.0430,0.3753,0.9381,0.0826,-0.1153,0.0369,0.1332,-0.5205,-0.0733,29.4000,-33.2400,-19.2000,10240.0000,0.0,0.0,0.0,
2.8280,0.0430,0.3753,0.9381,-0.0134,0.0394,-0.0197,0.1332,-0.5205,-0.0733,29.4000,-33.2400,-19.2000,10240.0000,0.0,0.0,0.0,
2.8660,0.0352,0.3792,0.9303,-0.0134,0.0394,-0.0197,0.1332,-0.5205,-0.0733,29.4000,-33.2400,-19.2000,10240.0000,0.0,0.0,0.0,
2.8800,0.0352,0.3792,0.9303,-0.0134,0.0394,-0.0197,0.1332,-0.5205,-0.0733,29.1000,-33.5400,-19.1400,10240.0000,0.0,0.0,0.0,
2.9060,0.0313,0.3792,0.9342,-0.0134,0.0394,-0.0197,0.1332,-0.5205,-0.0733,29.1000,-33.5400,-19.1400,10240.0000,0.0,0.0,0.0,
2.9260,0.0274,0.3792,0.9342,-0.0134,0.0394,-0.0197,0.1332,-0.5205,-0.0733,29.1000,-33.5400,-19.1400,10240.0000,0.0,0.0,0.0,
2.9460,0.0156,0.3870,0.9303,-0.0134,0.0394,-0.0197,0.1332,-0.5205,-0.0733,29.1000,-33.5400,-19.1400,10240.0000,0.0,0.0,0.0,
2.9660,0.0156,0.3870,0.9264,-0.0134,0.0394,-0.0197,0.1332,-0.5205,-0.0733,29.1000,-33.5400,-19.1400,10240.0000,0.0,0.0,0.0,
2.9860,0.0195,0.3870,0.9225,-0.0134,0.0394,-0.0197,0.1332,-0.5205,-0.0733,29.1000,-33.5400,-19.1400,10240.0000,0.0,0.0,0.0,
3.0060,0.0274,0.3792,0.9147,-0.0134,0.0394,-0.0197,0.1332,-0.5205,-0.0733,29.1000,-33.5400,-19.1400,10240.0000,0.0,0.0,0.0,
3.0130,0.0274,0.3792,0.9147,-0.0134,0.0394,-0.0197,0.1332,-0.5205,-0.0733,29.2200,-33.6600,-19.0200,10240.0000,0.0,0.0,0.0,
3.0260,0.0274,0.3753,0.9225,-0.0134,0.0394,-0.0197,0.1332,-0.5205,-0.0733,29.2200,-33.6600,-19.0200,10240.0000,0.0,0.0,0.0,
3.0270,0.0274,0.3753,0.9225,-0.0134,0.0394,-0.0197,-0.0330,0.0403,-0.0061,29.2200,-33.6600,-19.0200,10240.0000,0.0,0.0,0.0,
3.0280,0.0274,0.3753,0.9225,-0.3429,-0.0420,0.0278,-0.0330,0.0403,-0.0061,29.2200,-33.6600,-19.0200,10240.0000,0.0,0.0,0.0,
3.2260,0.0235,0.3753,0.9381,-0.3429,-0.0420,0.0278,-0.0330,0.0403,-0.0061,29.2200,-33.6600,-19.0200,10240.0000,0.0,0.0,0.0,
3.2270,0.0195,0.3753,0.9420,-0.3429,-0.0420,0.0278,-0.0330,0.0403,-0.0061,29.2200,-33.6600,-19.0200,10240.0000,0.0,0.0,0.0,
3.2310,0.0195,0.3753,0.9420,-0.3429,-0.0420,0.0278,-0.0330,0.0403,-0.0061,29.2200,-33.9000,-18.9000,10240.0000,0.0,0.0,0.0,
3.2320,0.0195,0.3713,0.9420,-0.3429,-0.0420,0.0278,-0.0330,0.0403,-0.0061,29.2200,-33.9000,-18.9000,10240.0000,0.0,0.0,0.0,
3.2350,0.0235,0.3713,0.9381,-0.3429,-0.0420,0.0278,-0.0330,0.0403,-0.0061,29.2200,-33.9000,-18.9000,10240.0000,0.0,0.0,0.0,
3.2360,0.0274,0.3753,0.9381,-0.3429,-0.0420,0.0278,-0.0330,0.0403,-0.0061,29.2200,-33.9000,-18.9000,10240.0000,0.0,0.0,0.0,
3.2370,0.0235,0.3753,0.9420,-0.3429,-0.0420,0.0278,-0.0330,0.0403,-0.0061,29.2200,-33.9000,-18.9000,10240.0000,0.0,0.0,0.0,
3.2480,0.0235,0.3831,0.9342,-0.3429,-0.0420,0.0278,-0.0330,0.0403,-0.0061,29.2200,-33.9000,-18.9000,10240.0000,0.0,0.0,0.0,
3.2490,0.0235,0.3870,0.9381,-0.3429,-0.0420,0.0278,-0.0330,0.0403,-0.0061,29.2200,-33.9000,-18.9000,10240.0000,0.0,0.0,0.0,
3.2500,0.0156,0.3870,0.9538,-0.3429,-0.0420,0.0278,-0.0330,0.0403,-0.0061,29.2200,-33.9000,-18.9000,10240.0000,0.0,0.0,0.0,
3.2510,0.0156,0.3870,0.9538,-0.3429,-0.0420,0.0278,-0.0330,0.0403,-0.0061,29.2800,-34.2000,-18.7800,10240.0000,0.0,0.0,0.0,
3.2520,0.0156,0.3831,0.9616,-0.3429,-0.0420,0.0278,-0.0330,0.0403,-0.0061,29.2800,-34.2000,-18.7800,10240.0000,0.0,0.0,0.0,
3.2530,0.0195,0.3870,0.9460,-0.3429,-0.0420,0.0278,-0.0330,0.0403,-0.0061,29.2800,-34.2000,-18.7800,10240.0000,0.0,0.0,0.0,
3.2660,0.0195,0.3948,0.9342,-0.3429,-0.0420,0.0278,-0.0330,0.0403,-0.0061,29.2800,-34.2000,-18.7800,10240.0000,0.0,0.0,0.0,
3.2770,0.0195,0.3948,0.9342,-0.3429,-0.0420,0.0278,-0.0330,0.0403,-0.0061,28.8600,-34.2600,-18.9000,10240.0000,0.0,0.0,0.0,
3.3060,0.0235,0.3909,0.9381,-0.3429,-0.0420,0.0278,-0.0330,0.0403,-0.0061,28.8600,-34.2600,-18.9000,10240.0000,0.0,0.0,0.0,
3.3280,0.0274,0.3870,0.9460,-0.3429,-0.0420,0.0278,-0.0330,0.0403,-0.0061,28.8600,-34.2600,-18.9000,10240.0000,0.0,0.0,0.0,
3.3460,0.0274,0.3792,0.9538,-0.3429,-0.0420,0.0278,-0.0330,0.0403,-0.0061,28.8600,-34.2600,-18.9000,10240.0000,0.0,0.0,0.0,
3.3660,0.0235,0.3753,0.9538,-0.3429,-0.0420,0.0278,-0.0330,0.0403,-0.0061,28.8600,-34.2600,-18.9000,10240.0000,0.0,0.0,0.0,
3.3860,0.0274,0.3713,0.9499,-0.3429,-0.0420,0.0278,-0.0330,0.0403,-0.0061,28.8600,-34.2600,-18.9000,10240.0000,0.0,0.0,0.0,
3.4060,0.0274,0.3713,0.9460,-0.3429,-0.0420,0.0278,-0.0330,0.0403,-0.0061,28.8600,-34.2600,-18.9000,10240.0000,0.0,0.0,0.0,
3.4090,0.0274,0.3713,0.9460,-0.3429,-0.0420,0.0278,-0.0330,0.0403,-0.0061,28.7400,-34.3800,-18.9000,10240.0000,0.0,0.0,0.0,
3.4260,0.0274,0.3753,0.9381,-0.3429,-0.0420,0.0278,-0.0330,0.0403,-0.0061,28.7400,-34.3800,-18.9000,10240.0000,0.0,0.0,0.0,
3.4270,0.0274,0.3753,0.9381,-0.3429,-0.0420,0.0278,0.0269,0.0330,0.0000,28.7400,-34.3800,-18.9000,10240.0000,0.0,0.0,0.0,
3.4290,0.0274,0.3753,0.9381,-0.1311,-0.0750,0.0292,0.0269,0.0330,0.0000,28.7400,-34.3800,-18.9000,10240.0000,0.0,0.0,0.0,
3.4460,0.0274,0.3753,0.9420,-0.1311,-0.0750,0.0292,0.0269,0.0330,0.0000,28.7400,-34.3800,-18.9000,10240.0000,0.0,0.0,0.0,
3.4760,0.0274,0.3753,0.9420,-0.1311,-0.0750,0.0292,0.0269,0.0330,0.0000,28.7400,-34.3200,-18.7800,10240.0000,0.0,0.0,0.0,
3.4870,0.0274,0.3753,0.9342,-0.1311,-0.0750,0.0292,0.0269,0.0330,0.0000,28.7400,-34.3200,-18.7800,10240.0000,0.0,0.0,0.0,
3.5260,0.0274,0.3753,0.9303,-0.1311,-0.0750,0.0292,0.0269,0.0330,0.0000,28.7400,-34.3200,-18.7800,10240.0000,0.0,0.0,0.0,
3.5460,0.0235,0.3792,0.9342,-0.1311,-0.0750,0.0292,0.0269,0.0330,0.0000,28.7400,-34.3200,-18.7800,10240.0000,0.0,0.0,0.0,
3.5660,0.0235,0.3831,0.9342,-0.1311,-0.0750,0.0292,0.0269,0.0330,0.0000,28.7400,-34.3200,-18.7800,10240.0000,0.0,0.0,0.0,
3.5890,0.0235,0.3831,0.9381,-0.1311,-0.0750,0.0292,0.0269,0.0330,0.0000,28.7400,-34.3200,-18.7800,10240.0000,0.0,0.0,0.0,
3.6060,0.0195,0.3831,0.9420,-0.1311,-0.0750,0.0292,0.0269,0.0330,0.0000,28.7400,-34.3200,-18.7800,10240.0000,0.0,0.0,0.0,
3.6080,0.0195,0.3831,0.9420,-0.1311,-0.0750,0.0292,0.0269,0.0330,0.0000,28.8000,-34.1400,-18.6600,10240.0000,0.0,0.0,0.0,
3.6280,0.0156,0.3792,0.9499,-0.1311,-0.0750,0.0292,0.0269,0.0330,0.0000,28.8000,-34.1400,-18.6600,10240.0000,0.0,0.0,0.0,
3.6290,0.0156,0.3792,0.9499,-0.1311,-0.0750,0.0292,-0.0684,0.0049,-0.0024,28.8000,-34.1400,-18.6600,10240.0000,0.0,0.0,0.0,
3.6300,0.0156,0.3792,0.9499,-0.1828,-0.0250,0.0090,-0.0684,0.0049,-0.0024,28.8000,-34.1400,-18.6600,10240.0000,0.0,0.0,0.0,
3.6460,0.0078,0.3753,0.9460,-0.1828,-0.0250,0.0090,-0.0684,0.0049,-0.0024,28.8000,-34.1400,-18.6600,10240.0000,0.0,0.0,0.0,
3.6660,0.0078,0.3792,0.9420,-0.1828,-0.0250,0.0090,-0.0684,0.0049,-0.0024,28.8000,-34.1400,-18.6600,10240.0000,0.0,0.0,0.0,
3.6760,0.0078,0.3792,0.9420,-0.1828,-0.0250,0.0090,-0.0684,0.0049,-0.0024,28.6200,-34.1400,-18.8400,10240.0000,0.0,0.0,0.0,
3.6870,0.0039,0.3831,0.9303,-0.1828,-0.0250,0.0090,-0.0684,0.0049,-0.0024,28.6200,-34.1400,-18.8400,10240.0000,0.0,0.0,0.0,
3.7060,0.0117,0.3792,0.9264,-0.1828,-0.0250,0.0090,-0.0684,0.0049,-0.0024,28.6200,-34.1400,-18.8400,10240.0000,0.0,0.0,0.0,
3.7270,0.0156,0.3792,0.9147,-0.1828,-0.0250,0.0090,-0.0684,0.0049,-0.0024,28.6200,-34.1400,-18.8400,10240.0000,0.0,0.0,0.0,
3.7470,0.0195,0.3753,0.9147,-0.1828,-0.0250,0.0090,-0.0684,0.0049,-0.0024,28.6200,-34.1400,-18.8400,10240.0000,0.0,0.0,0.0,
3.7660,0.0274,0.3440,0.9577,-0.1828,-0.0250,0.0090,-0.0684,0.0049,-0.0024,28.6200,-34.1400,-18.8400,10240.0000,0.0,0.0,0.0,
3.7870,0.0235,0.3401,0.9616,-0.1828,-0.0250,0.0090,-0.0684,0.0049,-0.0024,28.6200,-34.1400,-18.8400,10240.0000,0.0,0.0,0.0,
3.8060,0.0235,0.3401,0.9616,-0.1828,-0.0250,0.0090,-0.0684,0.0049,-0.0024,28.2000,-33.9600,-19.3800,10240.0000,0.0,0.0,0.0,
3.8160,0.0235,0.3440,0.9538,-0.1828,-0.0250,0.0090,-0.0684,0.0049,-0.0024,28.2000,-33.9600,-19.3800,10240.0000,0.0,0.0,0.0,
3.8260,0.0235,0.3440,0.9538,-0.1828,-0.0250,0.0090,-0.0550,0.0122,0.1185,28.2000,-33.9600,-19.3800,10240.0000,0.0,0.0,0.0,
3.8270,0.0235,0.3440,0.9538,-0.0901,-0.1835,0.0669,-0.0550,0.0122,0.1185,28.2000,-33.9600,-19.3800,10240.0000,0.0,0.0,0.0,
3.9940,0.0195,0.3401,0.9577,-0.0901,-0.1835,0.0669,-0.0550,0.0122,0.1185,28.2000,-33.9600,-19.3800,10240.0000,0.0,0.0,0.0,
3.9950,0.0195,0.3401,0.9616,-0.0901,-0.1835,0.0669,-0.0550,0.0122,0.1185,28.2000,-33.9600,-19.3800,10240.0000,0.0,0.0,0.0,
3.9960,0.0195,0.3401,0.9616,-0.0901,-0.1835,0.0669,-0.0550,0.0122,0.1185,27.9000,-33.6000,-19.8000,10240.0000,0.0,0.0,0.0,
3.9970,0.0274,0.3283,0.9772,-0.0901,-0.1835,0.0669,-0.0550,0.0122,0.1185,27.9000,-33.6000,-19.8000,10240.0000,0.0,0.0,0.0,
3.9980,0.0313,0.3205,0.9772,-0.0901,-0.1835,0.0669,-0.0550,0.0122,0.1185,27.9000,-33.6000,-19.8000,10240.0000,0.0,0.0,0.0,
4.0000,0.0313,0.3244,0.9772,-0.0901,-0.1835,0.0669,-0.0550,0.0122,0.1185,27.9000,-33.6000,-19.8000,10240.0000,0.0,0.0,0.0,
4.0010,0.0313,0.3244,0.9733,-0.0901,-0.1835,0.0669,-0.0550,0.0122,0.1185,27.9000,-33.6000,-19.8000,10240.0000,0.0,0.0,0.0,
4.0020,0.0391,0.3205,0.9655,-0.0901,-0.1835,0.0669,-0.0550,0.0122,0.1185,27.9000,-33.6000,-19.8000,10240.0000,0.0,0.0,0.0,
4.0030,0.0352,0.3205,0.9655,-0.0901,-0.1835,0.0669,-0.0550,0.0122,0.1185,27.9000,-33.6000,-19.8000,10240.0000,0.0,0.0,0.0,
4.0040,0.0313,0.3244,0.9655,-0.0901,-0.1835,0.0669,-0.0550,0.0122,0.1185,27.9000,-33.6000,-19.8000,10240.0000,0.0,0.0,0.0,
4.0050,0.0313,0.3244,0.9655,-0.0901,-0.1835,0.0669,-0.0550,0.0122,0.1185,27.7200,-33.1800,-20.1600,10240.0000,0.0,0.0,0.0,
4.0160,0.0313,0.3244,0.9694,-0.0901,-0.1835,0.0669,-0.0550,0.0122,0.1185,27.7200,-33.1800,-20.1600,10240.0000,0.0,0.0,0.0,
4.0260,0.0313,0.3244,0.9694,-0.0901,-0.1835,0.0669,0.0586,0.2065,0.0000,27.7200,-33.1800,-20.1600,10240.0000,0.0,0.0,0.0,
4.0270,0.0313,0.3244,0.9694,0.1150,-0.3144,0.1048,0.0586,0.2065,0.0000,27.7200,-33.1800,-20.1600,10240.0000,0.0,0.0,0.0,
4.0360,0.0274,0.3283,0.9655,0.1150,-0.3144,0.1048,0.0586,0.2065,0.0000,27.7200,-33.1800,-20.1600,10240.0000,0.0,0.0,0.0,
4.0560,0.0235,0.3323,0.9577,0.1150,-0.3144,0.1048,0.0586,0.2065,0.0000,27.7200,-33.1800,-20.1600,10240.0000,0.0,0.0,0.0,
4.0700,0.0235,0.3323,0.9577,0.1150,-0.3144,0.1048,0.0586,0.2065,0.0000,27.4200,-33.1800,-20.8200,10240.0000,0.0,0.0,0.0,
4.0760,0.0274,0.3323,0.9499,0.1150,-0.3144,0.1048,0.0586,0.2065,0.0000,27.4200,-33.1800,-20.8200,10240.0000,0.0,0.0,0.0,
4.0960,0.0117,0.3401,0.9420,0.1150,-0.3144,0.1048,0.0586,0.2065,0.0000,27.4200,-33.1800,-20.8200,10240.0000,0.0,0.0,0.0,
4.1160,0.0117,0.3518,0.9420,0.1150,-0.3144,0.1048,0.0586,0.2065,0.0000,27.4200,-33.1800,-20.8200,10240.0000,0.0,0.0,0.0,
4.1350,0.0078,0.3557,0.9420,0.1150,-0.3144,0.1048,0.0586,0.2065,0.0000,27.4200,-33.1800,-20.8200,10240.0000,0.0,0.0,0.0,
4.1550,0.0117,0.3518,0.9499,0.1150,-0.3144,0.1048,0.0586,0.2065,0.0000,27.4200,-33.1800,-20.8200,10240.0000,0.0,0.0,0.0,
4.1760,0.0000,0.3440,0.9616,0.1150,-0.3144,0.1048,0.0586,0.2065,0.0000,27.4200,-33.1800,-20.8200,10240.0000,0.0,0.0,0.0,
4.1960,0.0039,0.3479,0.9577,0.1150,-0.3144,0.1048,0.0586,0.2065,0.0000,27.4200,-33.1800,-20.8200,10240.0000,0.0,0.0,0.0,
4.2030,0.0039,0.3479,0.9577,0.1150,-0.3144,0.1048,0.0586,0.2065,0.0000,27.1800,-32.9400,-21.5400,10240.0000,0.0,0.0,0.0,
4.2150,0.0078,0.3518,0.9460,0.1150,-0.3144,0.1048,0.0586,0.2065,0.0000,27.1800,-32.9400,-21.5400,10240.0000,0.0,0.0,0.0,
4.2260,0.0078,0.3518,0.9460,0.1150,-0.3144,0.1048,0.0208,0.0538,-0.0354,27.1800,-32.9400,-21.5400,10240.0000,0.0,0.0,0.0,
4.2270,0.0078,0.3518,0.9460,0.0796,-0.0512,0.0144,0.0208,0.0538,-0.0354,27.1800,-32.9400,-21.5400,10240.0000,0.0,0.0,0.0,
4.2350,0.0000,0.3557,0.9499,0.0796,-0.0512,0.0144,0.0208,0.0538,-0.0354,27.1800,-32.9400,-21.5400,10240.0000,0.0,0.0,0.0,
4.2560,0.0000,0.3518,0.9499,0.0796,-0.0512,0.0144,0.0208,0.0538,-0.0354,27.1800,-32.9400,-21.5400,10240.0000,0.0,0.0,0.0,
4.2690,0.0000,0.3518,0.9499,0.0796,-0.0512,0.0144,0.0208,0.0538,-0.0354,26.5800,-32.8200,-22.3800,10240.0000,0.0,0.0,0.0,
4.2760,0.0039,0.3518,0.9538,0.0796,-0.0512,0.0144,0.0208,0.0538,-0.0354,26.5800,-32.8200,-22.3800,10240.0000,0.0,0.0,0.0,
4.2960,0.0039,0.3479,0.9616,0.0796,-0.0512,0.0144,0.0208,0.0538,-0.0354,26.5800,-32.8200,-22.3800,10240.0000,0.0,0.0,0.0,
4.3160,0.0039,0.3440,0.9694,0.0796,-0.0512,0.0144,0.0208,0.0538,-0.0354,26.5800,-32.8200,-22.3800,10240.0000,0.0,0.0,0.0,
4.3460,0.0039,0.3401,0.9694,0.0796,-0.0512,0.0144,0.0208,0.0538,-0.0354,26.5800,-32.8200,-22.3800,10240.0000,0.0,0.0,0.0,
4.3660,0.0117,0.3440,0.9616,0.0796,-0.0512,0.0144,0.0208,0.0538,-0.0354,26.5800,-32.8200,-22.3800,10240.0000,0.0,0.0,0.0,
4.3870,0.0156,0.3401,0.9538,0.0796,-0.0512,0.0144,0.0208,0.0538,-0.0354,26.5800,-32.8200,-22.3800,10240.0000,0.0,0.0,0.0,
4.4030,0.0156,0.3401,0.9538,0.0796,-0.0512,0.0144,0.0208,0.0538,-0.0354,26.2800,-32.8200,-22.9800,10240.0000,0.0,0.0,0.0,
4.4090,0.0117,0.3440,0.9460,0.0796,-0.0512,0.0144,0.0208,0.0538,-0.0354,26.2800,-32.8200,-22.9800,10240.0000,0.0,0.0,0.0,
4.4270,0.0117,0.3440,0.9460,0.0796,-0.0512,0.0144,0.0403,0.0195,-0.0183,26.2800,-32.8200,-22.9800,10240.0000,0.0,0.0,0.0,
4.4280,0.0117,0.3440,0.9460,0.1149,-0.1042,0.0336,0.0403,0.0195,-0.0183,26.2800,-32.8200,-22.9800,10240.0000,0.0,0.0,0.0,
4.4460,0.0078,0.3401,0.9538,0.1149,-0.1042,0.0336,0.0403,0.0195,-0.0183,26.2800,-32.8200,-22.9800,10240.0000,0.0,0.0,0.0,
4.4670,0.0078,0.3401,0.9616,0.1149,-0.1042,0.0336,0.0403,0.0195,-0.0183,26.2800,-32.8200,-22.9800,10240.0000,0.0,0.0,0.0,
4.4680,0.0078,0.3401,0.9616,0.1149,-0.1042,0.0336,0.0403,0.0195,-0.0183,25.8600,-32.6400,-23.5800,10240.0000,0.0,0.0,0.0,
4.4860,0.0117,0.3362,0.9577,0.1149,-0.1042,0.0336,0.0403,0.0195,-0.0183,25.8600,-32.6400,-23.5800,10240.0000,0.0,0.0,0.0,
4.5060,0.0156,0.3401,0.9538,0.1149,-0.1042,0.0336,0.0403,0.0195,-0.0183,25.8600,-32.6400,-23.5800,10240.0000,0.0,0.0,0.0,
4.5260,0.0117,0.3401,0.9577,0.1149,-0.1042,0.0336,0.0403,0.0195,-0.0183,25.8600,-32.6400,-23.5800,10240.0000,0.0,0.0,0.0,
4.5470,0.0156,0.3401,0.9577,0.1149,-0.1042,0.0336,0.0403,0.0195,-0.0183,25.8600,-32.6400,-23.5800,10240.0000,0.0,0.0,0.0,
4.5670,0.0156,0.3401,0.9538,0.1149,-0.1042,0.0336,0.0403,0.0195,-0.0183,25.8600,-32.6400,-23.5800,10240.0000,0.0,0.0,0.0,
4.6010,0.0156,0.3401,0.9538,0.1149,-0.1042,0.0336,0.0403,0.0195,-0.0183,25.2000,-32.4600,-24.1200,10240.0000,0.0,0.0,0.0,
4.8200,0.0078,0.3401,0.9538,0.1149,-0.1042,0.0336,0.0403,0.0195,-0.0183,25.2000,-32.4600,-24.1200,10240.0000,0.0,0.0,0.0,
4.8210,0.0078,0.3401,0.9538,0.1149,-0.1042,0.0336,-0.0147,0.0269,-0.0159,25.2000,-32.4600,-24.1200,10240.0000,0.0,0.0,0.0,
4.8220,0.0078,0.3401,0.9538,0.0783,-0.1336,0.0444,-0.0147,0.0269,-0.0159,25.2000,-32.4600,-24.1200,10240.0000,0.0,0.0,0.0,
4.8230,0.0078,0.3401,0.9499,0.0783,-0.1336,0.0444,-0.0147,0.0269,-0.0159,25.2000,-32.4600,-24.1200,10240.0000,0.0,0.0,0.0,
4.8240,0.0078,0.3401,0.9499,0.0783,-0.1336,0.0444,-0.0147,0.0269,-0.0159,24.7200,-32.3400,-24.6600,10240.0000,0.0,0.0,0.0,
4.8270,0.0078,0.3440,0.9616,0.0783,-0.1336,0.0444,-0.0147,0.0269,-0.0159,24.7200,-32.3400,-24.6600,10240.0000,0.0,0.0,0.0,
4.8280,0.0078,0.3401,0.9694,0.0783,-0.1336,0.0444,-0.0147,0.0269,-0.0159,24.7200,-32.3400,-24.6600,10240.0000,0.0,0.0,0.0,
4.8290,0.0117,0.3401,0.9655,0.0783,-0.1336,0.0444,-0.0147,0.0269,-0.0159,24.7200,-32.3400,-24.6600,10240.0000,0.0,0.0,0.0,
4.8300,0.0156,0.3401,0.9538,0.0783,-0.1336,0.0444,-0.0147,0.0269,-0.0159,24.7200,-32.3400,-24.6600,10240.0000,0.0,0.0,0.0,
4.8310,0.0117,0.3401,0.9499,0.0783,-0.1336,0.0444,-0.0147,0.0269,-0.0159,24.7200,-32.3400,-24.6600,10240.0000,0.0,0.0,0.0,
4.8320,0.0156,0.3401,0.9616,0.0783,-0.1336,0.0444,-0.0147,0.0269,-0.0159,24.7200,-32.3400,-24.6600,10240.0000,0.0,0.0,0.0,
4.8330,0.0195,0.3401,0.9655,0.0783,-0.1336,0.0444,-0.0147,0.0269,-0.0159,24.7200,-32.3400,-24.6600,10240.0000,0.0,0.0,0.0,
4.8340,0.0235,0.3401,0.9577,0.0783,-0.1336,0.0444,-0.0147,0.0269,-0.0159,24.7200,-32.3400,-24.6600,10240.0000,0.0,0.0,0.0,
4.8350,0.0235,0.3401,0.9577,0.0783,-0.1336,0.0444,0.0012,-0.0122,-0.0049,24.7200,-32.3400,-24.6600,10240.0000,0.0,0.0,0.0,
4.8360,0.0235,0.3401,0.9577,0.2145,-0.1202,0.0373,0.0012,-0.0122,-0.0049,24.7200,-32.3400,-24.6600,10240.0000,0.0,0.0,0.0,
4.8460,0.0195,0.3401,0.9538,0.2145,-0.1202,0.0373,0.0012,-0.0122,-0.0049,24.7200,-32.3400,-24.6600,10240.0000,0.0,0.0,0.0,
4.8740,0.0235,0.3401,0.9538,0.2145,-0.1202,0.0373,0.0012,-0.0122,-0.0049,24.7200,-32.3400,-24.6600,10240.0000,0.0,0.0,0.0,
4.8750,0.0235,0.3401,0.9538,0.2145,-0.1202,0.0373,0.0012,-0.0122,-0.0049,24.1200,-32.4600,-24.8400,10240.0000,0.0,0.0,0.0,
4.8860,0.0235,0.3362,0.9538,0.2145,-0.1202,0.0373,0.0012,-0.0122,-0.0049,24.1200,-32.4600,-24.8400,10240.0000,0.0,0.0,0.0,
4.9050,0.0195,0.3401,0.9499,0.2145,-0.1202,0.0373,0.0012,-0.0122,-0.0049,24.1200,-32.4600,-24.8400,10240.0000,0.0,0.0,0.0,
4.9270,0.0195,0.3440,0.9538,0.2145,-0.1202,0.0373,0.0012,-0.0122,-0.0049,24.1200,-32.4600,-24.8400,10240.0000,0.0,0.0,0.0,
4.9460,0.0195,0.3401,0.9499,0.2145,-0.1202,0.0373,0.0012,-0.0122,-0.0049,24.1200,-32.4600,-24.8400,10240.0000,0.0,0.0,0.0,
4.9660,0.0195,0.3440,0.9577,0.2145,-0.1202,0.0373,0.0012,-0.0122,-0.0049,24.1200,-32.4600,-24.8400,10240.0000,0.0,0.0,0.0,
4.9870,0.0117,0.3401,0.9538,0.2145,-0.1202,0.0373,0.0012,-0.0122,-0.0049,24.1200,-32.4600,-24.8400,10240.0000,0.0,0.0,0.0,
4.9980,0.0117,0.3401,0.9538,0.2145,-0.1202,0.0373,0.0012,-0.0122,-0.0049,23.8800,-32.3400,-25.0800,10240.0000,0.0,0.0,0.0,
5.0150,0.0078,0.3440,0.9694,0.2145,-0.1202,0.0373,0.0012,-0.0122,-0.0049,23.8800,-32.3400,-25.0800,10240.0000,0.0,0.0,0.0,
5.0260,0.0078,0.3440,0.9694,0.2145,-0.1202,0.0373,0.0354,-0.0049,-0.0049,23.8800,-32.3400,-25.0800,10240.0000,0.0,0.0,0.0,
5.0270,0.0078,0.3440,0.9694,0.0669,-0.0984,0.0320,0.0354,-0.0049,-0.0049,23.8800,-32.3400,-25.0800,10240.0000,0.0,0.0,0.0,
5.0350,0.0078,0.3440,0.9577,0.0669,-0.0984,0.0320,0.0354,-0.0049,-0.0049,23.8800,-32.3400,-25.0800,10240.0000,0.0,0.0,0.0,
5.0550,0.0117,0.3440,0.9499,0.0669,-0.0984,0.0320,0.0354,-0.0049,-0.0049,23.8800,-32.3400,-25.0800,10240.0000,0.0,0.0,0.0,
5.0640,0.0117,0.3440,0.9499,0.0669,-0.0984,0.0320,0.0354,-0.0049,-0.0049,23.8200,-32.4000,-25.2000,10240.0000,0.0,0.0,0.0,
5.0750,0.0078,0.3401,0.9420,0.0669,-0.0984,0.0320,0.0354,-0.0049,-0.0049,23.8200,-32.4000,-25.2000,10240.0000,0.0,0.0,0.0,
5.0950,0.0117,0.3440,0.9342,0.0669,-0.0984,0.0320,0.0354,-0.0049,-0.0049,23.8200,-32.4000,-25.2000,10240.0000,0.0,0.0,0.0,
5.1160,0.0195,0.3479,0.9381,0.0669,-0.0984,0.0320,0.0354,-0.0049,-0.0049,23.8200,-32.4000,-25.2000,10240.0000,0.0,0.0,0.0,
5.1360,0.0274,0.3401,0.9460,0.0669,-0.0984,0.0320,0.0354,-0.0049,-0.0049,23.8200,-32.4000,-25.2000,10240.0000,0.0,0.0,0.0,
5.1560,0.0274,0.3323,0.9616,0.0669,-0.0984,0.0320,0.0354,-0.0049,-0.0049,23.8200,-32.4000,-25.2000,10240.0000,0.0,0.0,0.0,
5.1760,0.0274,0.3323,0.9577,0.0669,-0.0984,0.0320,0.0354,-0.0049,-0.0049,23.8200,-32.4000,-25.2000,10240.0000,0.0,0.0,0.0,
5.1960,0.0274,0.3362,0.9460,0.0669,-0.0984,0.0320,0.0354,-0.0049,-0.0049,23.8200,-32.4000,-25.2000,10240.0000,0.0,0.0,0.0,
5.1970,0.0274,0.3362,0.9460,0.0669,-0.0984,0.0320,0.0354,-0.0049,-0.0049,23.7000,-32.5200,-25.5000,10240.0000,0.0,0.0,0.0,
5.2160,0.0274,0.3401,0.9420,0.0669,-0.0984,0.0320,0.0354,-0.0049,-0.0049,23.7000,-32.5200,-25.5000,10240.0000,0.0,0.0,0.0,
5.2270,0.0274,0.3401,0.9420,0.0669,-0.0984,0.0320,-0.0049,-0.0244,-0.0269,23.7000,-32.5200,-25.5000,10240.0000,0.0,0.0,0.0,
5.2280,0.0274,0.3401,0.9420,0.2231,-0.0344,0.0062,-0.0049,-0.0244,-0.0269,23.7000,-32.5200,-25.5000,10240.0000,0.0,0.0,0.0,
5.2360,0.0235,0.3440,0.9420,0.2231,-0.0344,0.0062,-0.0049,-0.0244,-0.0269,23.7000,-32.5200,-25.5000,10240.0000,0.0,0.0,0.0,
5.2560,0.0235,0.3440,0.9381,0.2231,-0.0344,0.0062,-0.0049,-0.0244,-0.0269,23.7000,-32.5200,-25.5000,10240.0000,0.0,0.0,0.0,
5.2630,0.0235,0.3440,0.9381,0.2231,-0.0344,0.0062,-0.0049,-0.0244,-0.0269,23.9400,-32.5200,-25.6800,10240.0000,0.0,0.0,0.0,
5.2770,0.0195,0.3440,0.9420,0.2231,-0.0344,0.0062,-0.0049,-0.0244,-0.0269,23.9400,-32.5200,-25.6800,10240.0000,0.0,0.0,0.0,
5.2960,0.0117,0.3440,0.9499,0.2231,-0.0344,0.0062,-0.0049,-0.0244,-0.0269,23.9400,-32.5200,-25.6800,10240.0000,0.0,0.0,0.0,
5.3660,0.0117,0.3440,0.9577,0.2231,-0.0344,0.0062,-0.0049,-0.0244,-0.0269,23.9400,-32.5200,-25.6800,10240.0000,0.0,0.0,0.0,
5.3870,0.0117,0.3440,0.9655,0.2231,-0.0344,0.0062,-0.0049,-0.0244,-0.0269,23.9400,-32.5200,-25.6800,10240.0000,0.0,0.0,0.0,
5.3990,0.0117,0.3440,0.9655,0.2231,-0.0344,0.0062,-0.0049,-0.0244,-0.0269,24.1200,-32.5200,-25.5600,10240.0000,0.0,0.0,0.0,
5.6090,0.0117,0.3401,0.9655,0.2231,-0.0344,0.0062,-0.0049,-0.0244,-0.0269,24.1200,-32.5200,-25.5600,10240.0000,0.0,0.0,0.0,
5.6100,0.0117,0.3401,0.9655,0.2231,-0.0344,0.0062,-0.0122,-0.0024,0.0220,24.1200,-32.5200,-25.5600,10240.0000,0.0,0.0,0.0,
5.6130,0.0117,0.3401,0.9655,0.0652,-0.0823,0.0266,-0.0122,-0.0024,0.0220,24.1200,-32.5200,-25.5600,10240.0000,0.0,0.0,0.0,
5.6140,0.0156,0.3401,0.9616,0.0652,-0.0823,0.0266,-0.0122,-0.0024,0.0220,24.1200,-32.5200,-25.5600,10240.0000,0.0,0.0,0.0,
5.6150,0.0195,0.3362,0.9616,0.0652,-0.0823,0.0266,-0.0122,-0.0024,0.0220,24.1200,-32.5200,-25.5600,10240.0000,0.0,0.0,0.0,
5.6160,0.0195,0.3362,0.9616,0.0652,-0.0823,0.0266,-0.0122,-0.0024,0.0220,24.1200,-32.6400,-25.4400,10240.0000,0.0,0.0,0.0,
5.6170,0.0235,0.3323,0.9655,0.0652,-0.0823,0.0266,-0.0122,-0.0024,0.0220,24.1200,-32.6400,-25.4400,10240.0000,0.0,0.0,0.0,
5.6180,0.0195,0.3401,0.9577,0.0652,-0.0823,0.0266,-0.0122,-0.0024,0.0220,24.1200,-32.6400,-25.4400,10240.0000,0.0,0.0,0.0,
5.6190,0.0195,0.3401,0.9460,0.0652,-0.0823,0.0266,-0.0122,-0.0024,0.0220,24.1200,-32.6400,-25.4400,10240.0000,0.0,0.0,0.0,
5.6200,0.0195,0.3401,0.9420,0.0652,-0.0823,0.0266,-0.0122,-0.0024,0.0220,24.1200,-32.6400,-25.4400,10240.0000,0.0,0.0,0.0,
5.6210,0.0195,0.3440,0.9381,0.0652,-0.0823,0.0266,-0.0122,-0.0024,0.0220,24.1200,-32.6400,-25.4400,10240.0000,0.0,0.0,0.0,
5.6220,0.0235,0.3440,0.9381,0.0652,-0.0823,0.0266,-0.0122,-0.0024,0.0220,24.1200,-32.6400,-25.4400,10240.0000,0.0,0.0,0.0,
5.6260,0.0235,0.3440,0.9381,0.0652,-0.0823,0.0266,0.0183,-0.0342,-0.0098,24.1200,-32.6400,-25.4400,10240.0000,0.0,0.0,0.0,
5.6270,0.0235,0.3440,0.9381,0.1917,0.0110,-0.0093,0.0183,-0.0342,-0.0098,24.1200,-32.6400,-25.4400,10240.0000,0.0,0.0,0.0,
5.6460,0.0195,0.3440,0.9420,0.1917,0.0110,-0.0093,0.0183,-0.0342,-0.0098,24.1200,-32.6400,-25.4400,10240.0000,0.0,0.0,0.0,
5.6600,0.0195,0.3440,0.9420,0.1917,0.0110,-0.0093,0.0183,-0.0342,-0.0098,24.6600,-32.5800,-24.7200,10240.0000,0.0,0.0,0.0,
5.6650,0.0195,0.3440,0.9499,0.1917,0.0110,-0.0093,0.0183,-0.0342,-0.0098,24.6600,-32.5800,-24.7200,10240.0000,0.0,0.0,0.0,
5.6860,0.0195,0.3401,0.9538,0.1917,0.0110,-0.0093,0.0183,-0.0342,-0.0098,24.6600,-32.5800,-24.7200,10240.0000,0.0,0.0,0.0,
5.7060,0.0235,0.3401,0.9460,0.1917,0.0110,-0.0093,0.0183,-0.0342,-0.0098,24.6600,-32.5800,-24.7200,10240.0000,0.0,0.0,0.0,
5.7270,0.0195,0.3440,0.9499,0.1917,0.0110,-0.0093,0.0183,-0.0342,-0.0098,24.6600,-32.5800,-24.7200,10240.0000,0.0,0.0,0.0,
5.7460,0.0195,0.3440,0.9538,0.1917,0.0110,-0.0093,0.0183,-0.0342,-0.0098,24.6600,-32.5800,-24.7200,10240.0000,0.0,0.0,0.0,
5.7650,0.0195,0.3401,0.9538,0.1917,0.0110,-0.0093,0.0183,-0.0342,-0.0098,24.6600,-32.5800,-24.7200,10240.0000,0.0,0.0,0.0,
5.7860,0.0195,0.3518,0.9499,0.1917,0.0110,-0.0093,0.0183,-0.0342,-0.0098,24.6600,-32.5800,-24.7200,10240.0000,0.0,0.0,0.0,
5.7920,0.0195,0.3518,0.9499,0.1917,0.0110,-0.0093,0.0183,-0.0342,-0.0098,24.9000,-33.1800,-24.0600,10240.0000,0.0,0.0,0.0,
5.8060,0.0195,0.3518,0.9460,0.1917,0.0110,-0.0093,0.0183,-0.0342,-0.0098,24.9000,-33.1800,-24.0600,10240.0000,0.0,0.0,0.0,
5.8260,0.0195,0.3479,0.9460,0.1917,0.0110,-0.0093,0.0183,-0.0342,-0.0098,24.9000,-33.1800,-24.0600,10240.0000,0.0,0.0,0.0,
5.8270,0.0195,0.3479,0.9460,0.1917,0.0110,-0.0093,0.0000,0.0220,-0.0367,24.9000,-33.1800,-24.0600,10240.0000,0.0,0.0,0.0,
5.8280,0.0195,0.3479,0.9460,0.0978,0.0566,-0.0236,0.0000,0.0220,-0.0367,24.9000,-33.1800,-24.0600,10240.0000,0.0,0.0,0.0,
5.8450,0.0235,0.3518,0.9499,0.0978,0.0566,-0.0236,0.0000,0.0220,-0.0367,24.9000,-33.1800,-24.0600,10240.0000,0.0,0.0,0.0,
5.8580,0.0235,0.3518,0.9499,0.0978,0.0566,-0.0236,0.0000,0.0220,-0.0367,25.0800,-33.0600,-23.1000,10240.0000,0.0,0.0,0.0,
5.8650,0.0235,0.3518,0.9460,0.0978,0.0566,-0.0236,0.0000,0.0220,-0.0367,25.0800,-33.0600,-23.1000,10240.0000,0.0,0.0,0.0,
5.8850,0.0195,0.3479,0.9577,0.0978,0.0566,-0.0236,0.0000,0.0220,-0.0367,25.0800,-33.0600,-23.1000,10240.0000,0.0,0.0,0.0,
5.9060,0.0235,0.3518,0.9577,0.0978,0.0566,-0.0236,0.0000,0.0220,-0.0367,25.0800,-33.0600,-23.1000,10240.0000,0.0,0.0,0.0,
5.9260,0.0274,0.3479,0.9460,0.0978,0.0566,-0.0236,0.0000,0.0220,-0.0367,25.0800,-33.0600,-23.1000,10240.0000,0.0,0.0,0.0,
5.9460,0.0235,0.3596,0.8990,0.0978,0.0566,-0.0236,0.0000,0.0220,-0.0367,25.0800,-33.0600,-23.1000,10240.0000,0.0,0.0,0.0,
5.9660,0.0000,0.3596,0.8951,0.0978,0.0566,-0.0236,0.0000,0.0220,-0.0367,25.0800,-33.0600,-23.1000,10240.0000,0.0,0.0,0.0,
5.9900,-0.0078,0.3518,0.9264,0.0978,0.0566,-0.0236,0.0000,0.0220,-0.0367,25.0800,-33.0600,-23.1000,10240.0000,0.0,0.0,0.0,
5.9910,-0.0078,0.3518,0.9264,0.0978,0.0566,-0.0236,0.0000,0.0220,-0.0367,25.3800,-33.1800,-22.6200,10240.0000,0.0,0.0,0.0,
6.0070,0.0000,0.3440,0.9538,0.0978,0.0566,-0.0236,0.0000,0.0220,-0.0367,25.3800,-33.1800,-22.6200,10240.0000,0.0,0.0,0.0,
6.0270,0.0039,0.3440,0.9655,0.0978,0.0566,-0.0236,0.0000,0.0220,-0.0367,25.3800,-33.1800,-22.6200,10240.0000,0.0,0.0,0.0,
6.0280,0.0039,0.3440,0.9655,0.0978,0.0566,-0.0236,-0.1454,0.0024,-0.0147,25.3800,-33.1800,-22.6200,10240.0000,0.0,0.0,0.0,
6.0300,0.0039,0.3440,0.9655,-0.0405,0.0871,-0.0323,-0.1454,0.0024,-0.0147,25.3800,-33.1800,-22.6200,10240.0000,0.0,0.0,0.0,
6.0470,0.0156,0.3440,0.9655,-0.0405,0.0871,-0.0323,-0.1454,0.0024,-0.0147,25.3800,-33.1800,-22.6200,10240.0000,0.0,0.0,0.0,
6.0580,0.0156,0.3440,0.9655,-0.0405,0.0871,-0.0323,-0.1454,0.0024,-0.0147,25.5600,-33.3000,-21.9600,10240.0000,0.0,0.0,0.0,
6.0660,0.0195,0.3479,0.9577,-0.0405,0.0871,-0.0323,-0.1454,0.0024,-0.0147,25.5600,-33.3000,-21.9600,10240.0000,0.0,0.0,0.0,
6.0900,0.0195,0.3596,0.9381,-0.0405,0.0871,-0.0323,-0.1454,0.0024,-0.0147,25.5600,-33.3000,-21.9600,10240.0000,0.0,0.0,0.0,
6.1060,0.0156,0.3635,0.9420,-0.0405,0.0871,-0.0323,-0.1454,0.0024,-0.0147,25.5600,-33.3000,-21.9600,10240.0000,0.0,0.0,0.0,
6.1270,0.0156,0.3557,0.9460,-0.0405,0.0871,-0.0323,-0.1454,0.0024,-0.0147,25.5600,-33.3000,-21.9600,10240.0000,0.0,0.0,0.0,
6.1460,0.0117,0.3557,0.9577,-0.0405,0.0871,-0.0323,-0.1454,0.0024,-0.0147,25.5600,-33.3000,-21.9600,10240.0000,0.0,0.0,0.0,
6.1660,0.0078,0.3596,0.9460,-0.0405,0.0871,-0.0323,-0.1454,0.0024,-0.0147,25.5600,-33.3000,-21.9600,10240.0000,0.0,0.0,0.0,
6.3470,0.0078,0.3596,0.9420,-0.0405,0.0871,-0.0323,-0.1454,0.0024,-0.0147,25.5600,-33.3000,-21.9600,10240.0000,0.0,0.0,0.0,
6.3480,0.0078,0.3596,0.9420,-0.0405,0.0871,-0.0323,-0.1454,0.0024,-0.0147,25.9800,-33.4800,-21.6000,10240.0000,0.0,0.0,0.0,
6.3490,0.0117,0.3635,0.9420,-0.0405,0.0871,-0.0323,-0.1454,0.0024,-0.0147,25.9800,-33.4800,-21.6000,10240.0000,0.0,0.0,0.0,
6.3500,0.0117,0.3557,0.9460,-0.0405,0.0871,-0.0323,-0.1454,0.0024,-0.0147,25.9800,-33.4800,-21.6000,10240.0000,0.0,0.0,0.0,
6.3510,0.0117,0.3557,0.9460,-0.0405,0.0871,-0.0323,-0.0293,-0.1319,0.0012,25.9800,-33.4800,-21.6000,10240.0000,0.0,0.0,0.0,
6.3520,0.0117,0.3557,0.9460,-0.0600,0.3280,-0.1174,-0.0293,-0.1319,0.0012,25.9800,-33.4800,-21.6000,10240.0000,0.0,0.0,0.0,
6.3530,0.0156,0.3518,0.9538,-0.0600,0.3280,-0.1174,-0.0293,-0.1319,0.0012,25.9800,-33.4800,-21.6000,10240.0000,0.0,0.0,0.0,
6.3540,0.0156,0.3518,0.9538,-0.0600,0.3280,-0.1174,-0.0293,-0.1319,0.0012,26.7600,-33.4200,-21.0000,10240.0000,0.0,0.0,0.0,
6.3550,0.0117,0.3518,0.9538,-0.0600,0.3280,-0.1174,-0.0293,-0.1319,0.0012,26.7600,-33.4200,-21.0000,10240.0000,0.0,0.0,0.0,
6.3560,0.0156,0.3440,0.9577,-0.0600,0.3280,-0.1174,-0.0293,-0.1319,0.0012,26.7600,-33.4200,-21.0000,10240.0000,0.0,0.0,0.0,
6.3570,0.0117,0.3440,0.9577,-0.0600,0.3280,-0.1174,-0.0293,-0.1319,0.0012,26.7600,-33.4200,-21.0000,10240.0000,0.0,0.0,0.0,
6.3580,0.0156,0.3479,0.9538,-0.0600,0.3280,-0.1174,-0.0293,-0.1319,0.0012,26.7600,-33.4200,-21.0000,10240.0000,0.0,0.0,0.0,
20.2460,0.0156,0.3479,0.9538,-0.0600,0.3280,-0.1174,0.0171,0.0171,0.0171,26.7600,-33.4200,-21.0000,10240.0000,0.0,0.0,0.0,
20.2470,0.0156,0.3479,0.9538,-0.0600,0.3280,-0.1174,0.0171,0.0171,0.0171,26.7600,-33.4200,-21.0000,10240.0000,0.0,0.0,0.0,
20.2490,-0.0039,0.3635,0.9499,-0.0600,0.3280,-0.1174,0.0171,0.0171,0.0171,26.7600,-33.4200,-21.0000,10240.0000,0.0,0.0,0.0,
20.3250,-0.0039,0.3635,0.9499,-0.0600,0.3280,-0.1174,0.0171,0.0171,0.0171,26.2800,-29.4600,-25.8000,10240.0000,0.0,0.0,0.0,
20.3680,-0.0039,0.3635,0.9499,-0.0600,0.3280,-0.1174,0.0171,0.0171,0.0171,27.4800,-29.2800,-25.6200,10240.0000,0.0,0.0,0.0,
20.3690,-0.0039,0.3635,0.9499,-0.0600,0.3280,-0.1174,0.1014,-0.5143,-0.2761,27.4800,-29.2800,-25.6200,10240.0000,0.0,0.0,0.0,
20.3710,-0.0039,0.3635,0.9499,0.0430,0.0337,-0.0140,0.1014,-0.5143,-0.2761,27.4800,-29.2800,-25.6200,10240.0000,0.0,0.0,0.0,
20.4460,-0.0586,0.3870,0.9108,0.0430,0.0337,-0.0140,0.1014,-0.5143,-0.2761,27.4800,-29.2800,-25.6200,10240.0000,0.0,0.0,0.0,
20.4890,-0.0586,0.3870,0.9108,0.0430,0.0337,-0.0140,0.1014,-0.5143,-0.2761,27.3000,-29.2800,-25.6200,10240.0000,0.0,0.0,0.0,
20.5570,-0.0586,0.3870,0.9108,0.0430,0.0337,-0.0140,0.1014,-0.5143,-0.2761,26.5800,-29.1600,-25.9800,10240.0000,0.0,0.0,0.0,
20.5690,-0.0586,0.3870,0.9108,0.0430,0.0337,-0.0140,0.0061,-0.5143,0.1246,26.5800,-29.1600,-25.9800,10240.0000,0.0,0.0,0.0,
20.5730,-0.0586,0.3870,0.9108,0.0448,0.0219,-0.0095,0.0061,-0.5143,0.1246,26.5800,-29.1600,-25.9800,10240.0000,0.0,0.0,0.0,
20.6480,-0.0117,0.3635,0.9420,0.0448,0.0219,-0.0095,0.0061,-0.5143,0.1246,26.5800,-29.1600,-25.9800,10240.0000,0.0,0.0,0.0,
20.6880,-0.0117,0.3635,0.9420,0.0448,0.0219,-0.0095,0.0061,-0.5143,0.1246,26.4600,-29.3400,-25.9800,10240.0000,0.0,0.0,0.0,
20.7560,-0.0117,0.3635,0.9420,0.0448,0.0219,-0.0095,0.0061,-0.5143,0.1246,25.4400,-29.8800,-26.0400,10240.0000,0.0,0.0,0.0,
20.7680,-0.0117,0.3635,0.9420,0.0448,0.0219,-0.0095,-0.0183,0.1710,0.0562,25.4400,-29.8800,-26.0400,10240.0000,0.0,0.0,0.0,
20.7710,-0.0117,0.3635,0.9420,0.0803,-0.1073,0.0420,-0.0183,0.1710,0.0562,25.4400,-29.8800,-26.0400,10240.0000,0.0,0.0,0.0,
20.8460,-0.0391,0.3831,0.9303,0.0803,-0.1073,0.0420,-0.0183,0.1710,0.0562,25.4400,-29.8800,-26.0400,10240.0000,0.0,0.0,0.0,
20.8860,-0.0391,0.3831,0.9303,0.0803,-0.1073,0.0420,-0.0183,0.1710,0.0562,25.3200,-30.1200,-26.2200,10240.0000,0.0,0.0,0.0,
20.9530,-0.0391,0.3831,0.9303,0.0803,-0.1073,0.0420,-0.0183,0.1710,0.0562,25.6200,-29.8200,-25.9200,10240.0000,0.0,0.0,0.0,
20.9660,-0.0391,0.3831,0.9303,0.0803,-0.1073,0.0420,0.0000,0.1002,0.0648,25.6200,-29.8200,-25.9200,10240.0000,0.0,0.0,0.0,
20.9680,-0.0391,0.3831,0.9303,0.0042,0.0834,-0.0345,0.0000,0.1002,0.0648,25.6200,-29.8200,-25.9200,10240.0000,0.0,0.0,0.0,
21.0470,-0.0235,0.3557,0.9616,0.0042,0.0834,-0.0345,0.0000,0.1002,0.0648,25.6200,-29.8200,-25.9200,10240.0000,0.0,0.0,0.0,
21.0890,-0.0235,0.3557,0.9616,0.0042,0.0834,-0.0345,0.0000,0.1002,0.0648,25.2600,-29.7600,-25.8600,10240.0000,0.0,0.0,0.0,
21.1500,-0.0235,0.3557,0.9616,0.0042,0.0834,-0.0345,0.0000,0.1002,0.0648,24.8400,-29.7000,-25.7400,10240.0000,0.0,0.0,0.0,
21.1660,-0.0235,0.3557,0.9616,0.0042,0.0834,-0.0345,0.0024,0.1381,-0.0391,24.8400,-29.7000,-25.7400,10240.0000,0.0,0.0,0.0,
21.1670,-0.0235,0.3557,0.9616,0.2158,-0.1665,0.0714,0.0024,0.1381,-0.0391,24.8400,-29.7000,-25.7400,10240.0000,0.0,0.0,0.0,
21.2460,-0.0586,0.3909,0.9303,0.2158,-0.1665,0.0714,0.0024,0.1381,-0.0391,24.8400,-29.7000,-25.7400,10240.0000,0.0,0.0,0.0,
21.2830,-0.0586,0.3909,0.9303,0.2158,-0.1665,0.0714,0.0024,0.1381,-0.0391,24.5400,-29.7000,-25.4400,10240.0000,0.0,0.0,0.0,
21.3490,-0.0586,0.3909,0.9303,0.2158,-0.1665,0.0714,0.0024,0.1381,-0.0391,24.4800,-29.7000,-25.2000,10240.0000,0.0,0.0,0.0,
21.3660,-0.0586,0.3909,0.9303,0.2158,-0.1665,0.0714,0.0489,0.0073,0.0012,24.4800,-29.7000,-25.2000,10240.0000,0.0,0.0,0.0,
21.3670,-0.0586,0.3909,0.9303,-0.0021,0.1787,-0.0717,0.0489,0.0073,0.0012,24.4800,-29.7000,-25.2000,10240.0000,0.0,0.0,0.0,
21.4450,-0.0430,0.3909,0.9264,-0.0021,0.1787,-0.0717,0.0489,0.0073,0.0012,24.4800,-29.7000,-25.2000,10240.0000,0.0,0.0,0.0,
21.4820,-0.0430,0.3909,0.9264,-0.0021,0.1787,-0.0717,0.0489,0.0073,0.0012,24.5400,-29.1600,-25.0800,10240.0000,0.0,0.0,0.0,
21.5530,-0.0430,0.3909,0.9264,-0.0021,0.1787,-0.0717,0.0489,0.0073,0.0012,24.9600,-28.8000,-24.6600,10240.0000,0.0,0.0,0.0,
21.5850,-0.0430,0.3909,0.9264,-0.0021,0.1787,-0.0717,0.0134,0.1539,0.0305,24.9600,-28.8000,-24.6600,10240.0000,0.0,0.0,0.0,
21.5860,-0.0430,0.3909,0.9264,0.1647,0.1508,-0.0502,0.0134,0.1539,0.0305,24.9600,-28.8000,-24.6600,10240.0000,0.0,0.0,0.0,
21.6510,-0.0586,0.3753,0.9420,0.1647,0.1508,-0.0502,0.0134,0.1539,0.0305,24.9600,-28.8000,-24.6600,10240.0000,0.0,0.0,0.0,
21.8670,-0.0586,0.3753,0.9420,0.1647,0.1508,-0.0502,0.0134,0.1539,0.0305,25.4400,-28.6800,-24.2400,10240.0000,0.0,0.0,0.0,
21.8680,-0.0586,0.3753,0.9420,0.1647,0.1508,-0.0502,0.0134,0.1539,0.0305,26.4600,-28.3200,-23.8200,10240.0000,0.0,0.0,0.0,
21.8690,-0.0586,0.3753,0.9420,0.1647,0.1508,-0.0502,-0.0672,0.1222,0.0147,26.4600,-28.3200,-23.8200,10240.0000,0.0,0.0,0.0,
21.8700,-0.0586,0.3753,0.9420,0.1358,0.0106,0.0091,-0.0672,0.1222,0.0147,26.4600,-28.3200,-23.8200,10240.0000,0.0,0.0,0.0,
21.8710,-0.0547,0.3870,0.9420,0.1358,0.0106,0.0091,-0.0672,0.1222,0.0147,26.4600,-28.3200,-23.8200,10240.0000,0.0,0.0,0.0,
21.8820,-0.0547,0.3870,0.9420,0.1358,0.0106,0.0091,-0.0672,0.1222,0.0147,27.3600,-28.0200,-22.9800,10240.0000,0.0,0.0,0.0,
24.4170,-0.0547,0.3870,0.9420,0.1358,0.0106,0.0091,-0.0648,-0.0648,-0.0648,27.3600,-28.0200,-22.9800,10240.0000,0.0,0.0,0.0,
24.4250,-0.0547,0.3870,0.9420,0.1358,0.0106,0.0091,-0.0648,-0.0648,-0.0648,27.3600,-28.0200,-22.9800,10240.0000,0.0,0.0,0.0,
24.4280,-0.0274,0.3713,0.9460,0.1358,0.0106,0.0091,-0.0648,-0.0648,-0.0648,27.3600,-28.0200,-22.9800,10240.0000,0.0,0.0,0.0,
24.5000,-0.0274,0.3713,0.9460,0.1358,0.0106,0.0091,-0.0648,-0.0648,-0.0648,27.1200,-29.6400,-25.6200,10240.0000,0.0,0.0,0.0,
24.5620,-0.0274,0.3713,0.9460,0.1358,0.0106,0.0091,-0.0648,-0.0648,-0.0648,27.0000,-30.4200,-25.3800,10240.0000,0.0,0.0,0.0,
24.5640,-0.0274,0.3713,0.9460,0.1358,0.0106,0.0091,0.0855,-0.3592,-0.1710,27.0000,-30.4200,-25.3800,10240.0000,0.0,0.0,0.0,
24.5680,-0.0274,0.3713,0.9460,-0.0423,0.0184,-0.0078,0.0855,-0.3592,-0.1710,27.0000,-30.4200,-25.3800,10240.0000,0.0,0.0,0.0,
24.6310,-0.0508,0.4026,0.9381,-0.0423,0.0184,-0.0078,0.0855,-0.3592,-0.1710,27.0000,-30.4200,-25.3800,10240.0000,0.0,0.0,0.0,
24.6670,-0.0508,0.4026,0.9381,-0.0423,0.0184,-0.0078,0.0855,-0.3592,-0.1710,27.1200,-29.8200,-25.5600,10240.0000,0.0,0.0,0.0,
24.7350,-0.0508,0.4026,0.9381,-0.0423,0.0184,-0.0078,0.0855,-0.3592,-0.1710,26.7600,-30.0000,-25.7400,10240.0000,0.0,0.0,0.0,
24.7580,-0.0508,0.4026,0.9381,-0.0423,0.0184,-0.0078,0.1258,-0.3592,-0.0305,26.7600,-30.0000,-25.7400,10240.0000,0.0,0.0,0.0,
24.7620,-0.0508,0.4026,0.9381,-0.0407,0.0196,-0.0083,0.1258,-0.3592,-0.0305,26.7600,-30.0000,-25.7400,10240.0000,0.0,0.0,0.0,
24.8320,-0.0235,0.3948,0.9030,-0.0407,0.0196,-0.0083,0.1258,-0.3592,-0.0305,26.7600,-30.0000,-25.7400,10240.0000,0.0,0.0,0.0,
24.8650,-0.0235,0.3948,0.9030,-0.0407,0.0196,-0.0083,0.1258,-0.3592,-0.0305,26.9400,-29.8200,-25.7400,10240.0000,0.0,0.0,0.0,
24.9310,-0.0235,0.3948,0.9030,-0.0407,0.0196,-0.0083,0.1258,-0.3592,-0.0305,26.7000,-29.6400,-25.8600,10240.0000,0.0,0.0,0.0,
24.9560,-0.0235,0.3948,0.9030,-0.0407,0.0196,-0.0083,0.0269,-0.0867,0.0452,26.7000,-29.6400,-25.8600,10240.0000,0.0,0.0,0.0,
24.9590,-0.0235,0.3948,0.9030,-0.1057,-0.0075,0.0017,0.0269,-0.0867,0.0452,26.7000,-29.6400,-25.8600,10240.0000,0.0,0.0,0.0,
25.0600,-0.0235,0.3987,0.9030,-0.1057,-0.0075,0.0017,0.0269,-0.0867,0.0452,26.7000,-29.6400,-25.8600,10240.0000,0.0,0.0,0.0,
25.0670,-0.0235,0.3987,0.9030,-0.1057,-0.0075,0.0017,0.0269,-0.0867,0.0452,26.8200,-29.7600,-25.9200,10240.0000,0.0,0.0,0.0,
25.1320,-0.0235,0.3987,0.9030,-0.1057,-0.0075,0.0017,0.0269,-0.0867,0.0452,26.7000,-29.7600,-25.8000,10240.0000,0.0,0.0,0.0,
25.1560,-0.0235,0.3987,0.9030,-0.1057,-0.0075,0.0017,-0.0305,0.0195,-0.0501,26.7000,-29.7600,-25.8000,10240.0000,0.0,0.0,0.0,
25.1570,-0.0235,0.3987,0.9030,-0.1110,0.0320,-0.0162,-0.0305,0.0195,-0.0501,26.7000,-29.7600,-25.8000,10240.0000,0.0,0.0,0.0,
25.2310,-0.0352,0.4026,0.9460,-0.1110,0.0320,-0.0162,-0.0305,0.0195,-0.0501,26.7000,-29.7600,-25.8000,10240.0000,0.0,0.0,0.0,
25.2640,-0.0352,0.4026,0.9460,-0.1110,0.0320,-0.0162,-0.0305,0.0195,-0.0501,26.7000,-29.7600,-25.9800,10240.0000,0.0,0.0,0.0,
25.3300,-0.0352,0.4026,0.9460,-0.1110,0.0320,-0.0162,-0.0305,0.0195,-0.0501,26.5200,-29.8200,-26.2800,10240.0000,0.0,0.0,0.0,
25.3590,-0.0352,0.4026,0.9460,-0.1110,0.0320,-0.0162,-0.0183,0.0269,-0.0220,26.5200,-29.8200,-26.2800,10240.0000,0.0,0.0,0.0,
25.3620,-0.0352,0.4026,0.9460,-0.1120,-0.0358,0.0116,-0.0183,0.0269,-0.0220,26.5200,-29.8200,-26.2800,10240.0000,0.0,0.0,0.0,
25.4380,-0.0195,0.4026,0.9225,-0.1120,-0.0358,0.0116,-0.0183,0.0269,-0.0220,26.5200,-29.8200,-26.2800,10240.0000,0.0,0.0,0.0,
25.4700,-0.0195,0.4026,0.9225,-0.1120,-0.0358,0.0116,-0.0183,0.0269,-0.0220,26.1000,-29.9400,-26.5200,10240.0000,0.0,0.0,0.0,
25.5240,-0.0195,0.4026,0.9225,-0.1120,-0.0358,0.0116,-0.0183,0.0269,-0.0220,25.9800,-30.1200,-26.4000,10240.0000,0.0,0.0,0.0,
25.5640,-0.0195,0.4026,0.9225,-0.1120,-0.0358,0.0116,-0.0147,-0.1136,0.0171,25.9800,-30.1200,-26.4000,10240.0000,0.0,0.0,0.0,
25.5760,-0.0195,0.4026,0.9225,-0.0393,0.0441,-0.0206,-0.0147,-0.1136,0.0171,25.9800,-30.1200,-26.4000,10240.0000,0.0,0.0,0.0,
25.6300,-0.0195,0.3948,0.9303,-0.0393,0.0441,-0.0206,-0.0147,-0.1136,0.0171,25.9800,-30.1200,-26.4000,10240.0000,0.0,0.0,0.0,
25.7170,-0.0195,0.3948,0.9303,-0.0393,0.0441,-0.0206,-0.0147,-0.1136,0.0171,25.5600,-29.9400,-26.7600,10240.0000,0.0,0.0,0.0,
25.7590,-0.0195,0.3948,0.9303,-0.0393,0.0441,-0.0206,-0.0208,-0.0318,0.0415,25.5600,-29.9400,-26.7600,10240.0000,0.0,0.0,0.0,
25.7610,-0.0195,0.3948,0.9303,-0.1029,-0.0408,0.0145,-0.0208,-0.0318,0.0415,25.5600,-29.9400,-26.7600,10240.0000,0.0,0.0,0.0,
25.7910,-0.0195,0.3948,0.9303,-0.1029,-0.0408,0.0145,-0.0208,-0.0318,0.0415,25.6800,-29.8800,-26.5800,10240.0000,0.0,0.0,0.0,
25.8290,-0.0117,0.4026,0.9303,-0.1029,-0.0408,0.0145,-0.0208,-0.0318,0.0415,25.6800,-29.8800,-26.5800,10240.0000,0.0,0.0,0.0,
25.8630,-0.0117,0.4026,0.9303,-0.1029,-0.0408,0.0145,-0.0208,-0.0318,0.0415,25.8600,-30.0600,-26.5800,10240.0000,0.0,0.0,0.0,
25.9590,-0.0117,0.4026,0.9303,-0.1029,-0.0408,0.0145,0.0147,0.0452,0.0269,25.8600,-30.0600,-26.5800,10240.0000,0.0,0.0,0.0,
25.9630,-0.0117,0.4026,0.9303,-0.0039,0.0014,-0.0023,0.0147,0.0452,0.0269,25.8600,-30.0600,-26.5800,10240.0000,0.0,0.0,0.0,
25.9890,-0.0117,0.4026,0.9303,-0.0039,0.0014,-0.0023,0.0147,0.0452,0.0269,25.8600,-30.1800,-26.7600,10240.0000,0.0,0.0,0.0,
26.0300,-0.0117,0.4065,0.9225,-0.0039,0.0014,-0.0023,0.0147,0.0452,0.0269,25.8600,-30.1800,-26.7600,10240.0000,0.0,0.0,0.0,
26.0580,-0.0117,0.4065,0.9225,-0.0039,0.0014,-0.0023,0.0147,0.0452,0.0269,25.5600,-30.3000,-26.7600,10240.0000,0.0,0.0,0.0,
26.3080,-0.0117,0.4065,0.9225,-0.0039,0.0014,-0.0023,0.0159,0.0086,-0.0122,25.5600,-30.3000,-26.7600,10240.0000,0.0,0.0,0.0,
26.3100,-0.0117,0.4065,0.9225,0.0207,0.0351,-0.0171,0.0159,0.0086,-0.0122,25.5600,-30.3000,-26.7600,10240.0000,0.0,0.0,0.0,
26.3130,-0.0117,0.4065,0.9225,0.0207,0.0351,-0.0171,0.0159,0.0086,-0.0122,25.8600,-30.3000,-26.2800,10240.0000,0.0,0.0,0.0,
26.3150,-0.0117,0.4026,0.9186,0.0207,0.0351,-0.0171,0.0159,0.0086,-0.0122,25.8600,-30.3000,-26.2800,10240.0000,0.0,0.0,0.0,
26.3170,-0.0117,0.4026,0.9186,0.0207,0.0351,-0.0171,0.0159,0.0086,-0.0122,26.2200,-30.3600,-25.9800,10240.0000,0.0,0.0,0.0,
26.3570,-0.0117,0.4026,0.9186,0.0207,0.0351,-0.0171,-0.0220,0.0159,-0.0281,26.2200,-30.3600,-25.9800,10240.0000,0.0,0.0,0.0,
26.3590,-0.0117,0.4026,0.9186,0.0332,0.0285,-0.0139,-0.0220,0.0159,-0.0281,26.2200,-30.3600,-25.9800,10240.0000,0.0,0.0,0.0,
26.3880,-0.0117,0.4026,0.9186,0.0332,0.0285,-0.0139,-0.0220,0.0159,-0.0281,26.1600,-30.3000,-25.9800,10240.0000,0.0,0.0,0.0,
26.4270,-0.0156,0.4065,0.9264,0.0332,0.0285,-0.0139,-0.0220,0.0159,-0.0281,26.1600,-30.3000,-25.9800,10240.0000,0.0,0.0,0.0,
26.4550,-0.0156,0.4065,0.9264,0.0332,0.0285,-0.0139,-0.0220,0.0159,-0.0281,26.2200,-30.6600,-25.6800,10240.0000,0.0,0.0,0.0,
26.5620,-0.0156,0.4065,0.9264,0.0332,0.0285,-0.0139,-0.0257,-0.0024,-0.0147,26.2200,-30.6600,-25.6800,10240.0000,0.0,0.0,0.0,
26.5670,-0.0156,0.4065,0.9264,0.0078,0.0430,-0.0202,-0.0257,-0.0024,-0.0147,26.2200,-30.6600,-25.6800,10240.0000,0.0,0.0,0.0,
26.5890,-0.0156,0.4065,0.9264,0.0078,0.0430,-0.0202,-0.0257,-0.0024,-0.0147,25.9200,-30.6600,-25.9200,10240.0000,0.0,0.0,0.0,
26.6380,-0.0117,0.4104,0.9225,0.0078,0.0430,-0.0202,-0.0257,-0.0024,-0.0147,25.9200,-30.6600,-25.9200,10240.0000,0.0,0.0,0.0,
26.6550,-0.0117,0.4104,0.9225,0.0078,0.0430,-0.0202,-0.0257,-0.0024,-0.0147,25.4400,-30.6000,-25.9200,10240.0000,0.0,0.0,0.0,
26.7590,-0.0117,0.4104,0.9225,0.0078,0.0430,-0.0202,0.0024,0.0244,0.0159,25.4400,-30.6000,-25.9200,10240.0000,0.0,0.0,0.0,
26.7630,-0.0117,0.4104,0.9225,0.0389,0.0843,-0.0368,0.0024,0.0244,0.0159,25.4400,-30.6000,-25.9200,10240.0000,0.0,0.0,0.0,
26.7840,-0.0117,0.4104,0.9225,0.0389,0.0843,-0.0368,0.0024,0.0244,0.0159,25.3200,-30.6000,-26.2200,10240.0000,0.0,0.0,0.0,
26.8300,0.0000,0.4065,0.9069,0.0389,0.0843,-0.0368,0.0024,0.0244,0.0159,25.3200,-30.6000,-26.2200,10240.0000,0.0,0.0,0.0,
26.8500,0.0000,0.4065,0.9069,0.0389,0.0843,-0.0368,0.0024,0.0244,0.0159,25.5000,-30.6600,-26.2200,10240.0000,0.0,0.0,0.0,
26.9600,0.0000,0.4065,0.9069,0.0389,0.0843,-0.0368,-0.0098,0.0086,-0.0171,25.5000,-30.6600,-26.2200,10240.0000,0.0,0.0,0.0,
26.9630,0.0000,0.4065,0.9069,0.1330,0.0891,-0.0387,-0.0098,0.0086,-0.0171,25.5000,-30.6600,-26.2200,10240.0000,0.0,0.0,0.0,
26.9830,0.0000,0.4065,0.9069,0.1330,0.0891,-0.0387,-0.0098,0.0086,-0.0171,25.1400,-30.4800,-26.6400,10240.0000,0.0,0.0,0.0,
27.0300,-0.0078,0.3987,0.9264,0.1330,0.0891,-0.0387,-0.0098,0.0086,-0.0171,25.1400,-30.4800,-26.6400,10240.0000,0.0,0.0,0.0,
27.0610,-0.0078,0.3987,0.9264,0.1330,0.0891,-0.0387,-0.0098,0.0086,-0.0171,24.9000,-30.1200,-27.0000,10240.0000,0.0,0.0,0.0,
27.1620,-0.0078,0.3987,0.9264,0.1330,0.0891,-0.0387,-0.0195,0.0110,0.0183,24.9000,-30.1200,-27.0000,10240.0000,0.0,0.0,0.0,
27.1650,-0.0078,0.3987,0.9264,0.0432,-0.0410,0.0179,-0.0195,0.0110,0.0183,24.9000,-30.1200,-27.0000,10240.0000,0.0,0.0,0.0,
27.1830,-0.0078,0.3987,0.9264,0.0432,-0.0410,0.0179,-0.0195,0.0110,0.0183,24.9000,-30.1800,-27.2400,10240.0000,0.0,0.0,0.0,
27.2260,-0.0078,0.3870,0.9264,0.0432,-0.0410,0.0179,-0.0195,0.0110,0.0183,24.9000,-30.1800,-27.2400,10240.0000,0.0,0.0,0.0,
27.2450,-0.0078,0.3870,0.9264,0.0432,-0.0410,0.0179,-0.0195,0.0110,0.0183,25.0200,-30.1200,-27.1800,10240.0000,0.0,0.0,0.0,
27.3600,-0.0078,0.3870,0.9264,0.0432,-0.0410,0.0179,-0.0208,0.0061,-0.0098,25.0200,-30.1200,-27.1800,10240.0000,0.0,0.0,0.0,
27.3630,-0.0078,0.3870,0.9264,0.0330,-0.1266,0.0537,-0.0208,0.0061,-0.0098,25.0200,-30.1200,-27.1800,10240.0000,0.0,0.0,0.0,
27.3800,-0.0078,0.3870,0.9264,0.0330,-0.1266,0.0537,-0.0208,0.0061,-0.0098,24.9600,-30.2400,-27.2400,10240.0000,0.0,0.0,0.0,
27.4290,-0.0156,0.3948,0.9264,0.0330,-0.1266,0.0537,-0.0208,0.0061,-0.0098,24.9600,-30.2400,-27.2400,10240.0000,0.0,0.0,0.0,
27.4480,-0.0156,0.3948,0.9264,0.0330,-0.1266,0.0537,-0.0208,0.0061,-0.0098,25.0800,-30.1800,-27.3000,10240.0000,0.0,0.0,0.0,
27.5590,-0.0156,0.3948,0.9264,0.0330,-0.1266,0.0537,-0.0257,0.0318,0.0037,25.0800,-30.1800,-27.3000,10240.0000,0.0,0.0,0.0,
27.5620,-0.0156,0.3948,0.9264,-0.0429,-0.0529,0.0216,-0.0257,0.0318,0.0037,25.0800,-30.1800,-27.3000,10240.0000,0.0,0.0,0.0,
27.5780,-0.0156,0.3948,0.9264,-0.0429,-0.0529,0.0216,-0.0257,0.0318,0.0037,25.2600,-30.1200,-27.1800,10240.0000,0.0,0.0,0.0,
27.6310,0.0039,0.3870,0.9225,-0.0429,-0.0529,0.0216,-0.0257,0.0318,0.0037,25.2600,-30.1200,-27.1800,10240.0000,0.0,0.0,0.0,
27.6450,0.0039,0.3870,0.9225,-0.0429,-0.0529,0.0216,-0.0257,0.0318,0.0037,25.0800,-30.0000,-27.0600,10240.0000,0.0,0.0,0.0,
27.7590,0.0039,0.3870,0.9225,-0.0429,-0.0529,0.0216,-0.0562,0.0305,-0.1918,25.0800,-30.0000,-27.0600,10240.0000,0.0,0.0,0.0,
27.7630,0.0039,0.3870,0.9225,0.1964,-0.0543,0.0239,-0.0562,0.0305,-0.1918,25.0800,-30.0000,-27.0600,10240.0000,0.0,0.0,0.0,
27.7770,0.0039,0.3870,0.9225,0.1964,-0.0543,0.0239,-0.0562,0.0305,-0.1918,25.2000,-30.0600,-27.1200,10240.0000,0.0,0.0,0.0,
27.8300,-0.0235,0.3909,0.9577,0.1964,-0.0543,0.0239,-0.0562,0.0305,-0.1918,25.2000,-30.0600,-27.1200,10240.0000,0.0,0.0,0.0,
27.8430,-0.0235,0.3909,0.9577,0.1964,-0.0543,0.0239,-0.0562,0.0305,-0.1918,25.2600,-30.0000,-27.0000,10240.0000,0.0,0.0,0.0,
27.9590,-0.0235,0.3909,0.9577,0.1964,-0.0543,0.0239,0.2150,-0.0770,-0.3470,25.2600,-30.0000,-27.0000,10240.0000,0.0,0.0,0.0,
27.9620,-0.0235,0.3909,0.9577,0.0005,-0.1700,0.0713,0.2150,-0.0770,-0.3470,25.2600,-30.0000,-27.0000,10240.0000,0.0,0.0,0.0,
27.9750,-0.0235,0.3909,0.9577,0.0005,-0.1700,0.0713,0.2150,-0.0770,-0.3470,25.2000,-29.6400,-27.0000,10240.0000,0.0,0.0,0.0,
28.0290,-0.0117,0.4143,0.8873,0.0005,-0.1700,0.0713,0.2150,-0.0770,-0.3470,25.2000,-29.6400,-27.0000,10240.0000,0.0,0.0,0.0,
28.0410,-0.0117,0.4143,0.8873,0.0005,-0.1700,0.0713,0.2150,-0.0770,-0.3470,25.0200,-29.2800,-27.3000,10240.0000,0.0,0.0,0.0,
28.3590,-0.0117,0.4143,0.8873,0.0005,-0.1700,0.0713,-0.0159,-0.1930,-0.4313,25.0200,-29.2800,-27.3000,10240.0000,0.0,0.0,0.0,
28.3610,-0.0117,0.4143,0.8873,0.0234,0.0807,-0.0366,-0.0159,-0.1930,-0.4313,25.0200,-29.2800,-27.3000,10240.0000,0.0,0.0,0.0,
28.3620,-0.0117,0.4143,0.8873,0.0234,0.0807,-0.0366,-0.0159,-0.1930,-0.4313,25.0800,-28.8600,-27.5400,10240.0000,0.0,0.0,0.0,
28.3640,-0.0352,0.4300,0.9342,0.0234,0.0807,-0.0366,-0.0159,-0.1930,-0.4313,25.0800,-28.8600,-27.5400,10240.0000,0.0,0.0,0.0,
28.3650,-0.0352,0.4300,0.9342,0.0234,0.0807,-0.0366,-0.0159,-0.1930,-0.4313,25.3800,-28.3800,-27.4800,10240.0000,0.0,0.0,0.0,
28.3670,-0.0352,0.4300,0.9342,0.0234,0.0807,-0.0366,-0.0269,0.0415,-0.3311,25.3800,-28.3800,-27.4800,10240.0000,0.0,0.0,0.0,
28.3680,-0.0352,0.4300,0.9342,-0.0939,0.0487,-0.0244,-0.0269,0.0415,-0.3311,25.3800,-28.3800,-27.4800,10240.0000,0.0,0.0,0.0,
28.3710,-0.0352,0.4300,0.9342,-0.0939,0.0487,-0.0244,-0.0269,0.0415,-0.3311,25.7400,-27.9000,-27.3600,10240.0000,0.0,0.0,0.0,
28.4260,0.0430,0.4534,0.9147,-0.0939,0.0487,-0.0244,-0.0269,0.0415,-0.3311,25.7400,-27.9000,-27.3600,10240.0000,0.0,0.0,0.0,
28.4360,0.0430,0.4534,0.9147,-0.0939,0.0487,-0.0244,-0.0269,0.0415,-0.3311,26.3400,-27.0000,-27.6000,10240.0000,0.0,0.0,0.0,
28.5560,0.0430,0.4534,0.9147,-0.0939,0.0487,-0.0244,-0.1906,0.0367,-0.2077,26.3400,-27.0000,-27.6000,10240.0000,0.0,0.0,0.0,
28.5580,0.0430,0.4534,0.9147,0.5991,0.3086,-0.1516,-0.1906,0.0367,-0.2077,26.3400,-27.0000,-27.6000,10240.0000,0.0,0.0,0.0,
28.5690,0.0430,0.4534,0.9147,0.5991,0.3086,-0.1516,-0.1906,0.0367,-0.2077,26.8800,-26.0400,-27.7800,10240.0000,0.0,0.0,0.0,
28.6260,0.0274,0.4495,0.8834,0.5991,0.3086,-0.1516,-0.1906,0.0367,-0.2077,26.8800,-26.0400,-27.7800,10240.0000,0.0,0.0,0.0,
28.6350,0.0274,0.4495,0.8834,0.5991,0.3086,-0.1516,-0.1906,0.0367,-0.2077,27.2400,-25.2000,-28.2600,10240.0000,0.0,0.0,0.0,
28.7590,0.0274,0.4495,0.8834,0.5991,0.3086,-0.1516,0.2993,-0.3751,-0.1662,27.2400,-25.2000,-28.2600,10240.0000,0.0,0.0,0.0,
28.7630,0.0274,0.4495,0.8834,0.0712,0.1237,-0.0643,0.2993,-0.3751,-0.1662,27.2400,-25.2000,-28.2600,10240.0000,0.0,0.0,0.0,
28.7700,0.0274,0.4495,0.8834,0.0712,0.1237,-0.0643,0.2993,-0.3751,-0.1662,27.7200,-24.2400,-28.6800,10240.0000,0.0,0.0,0.0,
28.8270,0.0078,0.5238,0.8248,0.0712,0.1237,-0.0643,0.2993,-0.3751,-0.1662,27.7200,-24.2400,-28.6800,10240.0000,0.0,0.0,0.0,
28.8330,0.0078,0.5238,0.8248,0.0712,0.1237,-0.0643,0.2993,-0.3751,-0.1662,28.2600,-23.4600,-28.6200,10240.0000,0.0,0.0,0.0,
28.9590,0.0078,0.5238,0.8248,0.0712,0.1237,-0.0643,0.1014,0.2077,0.0183,28.2600,-23.4600,-28.6200,10240.0000,0.0,0.0,0.0,
28.9630,0.0078,0.5238,0.8248,-0.1842,0.3159,-0.1920,0.1014,0.2077,0.0183,28.2600,-23.4600,-28.6200,10240.0000,0.0,0.0,0.0,
28.9700,0.0078,0.5238,0.8248,-0.1842,0.3159,-0.1920,0.1014,0.2077,0.0183,28.7400,-22.6800,-28.7400,10240.0000,0.0,0.0,0.0,
29.0300,-0.0156,0.4847,0.8990,-0.1842,0.3159,-0.1920,0.1014,0.2077,0.0183,28.7400,-22.6800,-28.7400,10240.0000,0.0,0.0,0.0,
29.0350,-0.0156,0.4847,0.8990,-0.1842,0.3159,-0.1920,0.1014,0.2077,0.0183,28.9800,-21.9000,-28.9200,10240.0000,0.0,0.0,0.0,
29.1610,-0.0156,0.4847,0.8990,-0.1842,0.3159,-0.1920,0.1478,0.2211,0.3018,28.9800,-21.9000,-28.9200,10240.0000,0.0,0.0,0.0,
29.1650,-0.0156,0.4847,0.8990,-0.1191,-0.3159,0.1754,0.1478,0.2211,0.3018,28.9800,-21.9000,-28.9200,10240.0000,0.0,0.0,0.0,
29.1710,-0.0156,0.4847,0.8990,-0.1191,-0.3159,0.1754,0.1478,0.2211,0.3018,28.9200,-21.5400,-29.4000,10240.0000,0.0,0.0,0.0,
29.2300,-0.0391,0.4261,0.9030,-0.1191,-0.3159,0.1754,0.1478,0.2211,0.3018,28.9200,-21.5400,-29.4000,10240.0000,0.0,0.0,0.0,
29.2330,-0.0391,0.4261,0.9030,-0.1191,-0.3159,0.1754,0.1478,0.2211,0.3018,28.6800,-21.5400,-29.5200,10240.0000,0.0,0.0,0.0,
29.3630,-0.0391,0.4261,0.9030,-0.1191,-0.3159,0.1754,0.2492,-0.1600,0.2786,28.6800,-21.5400,-29.5200,10240.0000,0.0,0.0,0.0,
29.3670,-0.0391,0.4261,0.9030,-0.3010,-0.5742,0.2874,0.2492,-0.1600,0.2786,28.6800,-21.5400,-29.5200,10240.0000,0.0,0.0,0.0,
29.3710,-0.0391,0.4261,0.9030,-0.3010,-0.5742,0.2874,0.2492,-0.1600,0.2786,28.3800,-21.7200,-29.4600,10240.0000,0.0,0.0,0.0,
29.4320,-0.0782,0.3987,0.8912,-0.3010,-0.5742,0.2874,0.2492,-0.1600,0.2786,28.3800,-21.7200,-29.4600,10240.0000,0.0,0.0,0.0,
29.4350,-0.0782,0.3987,0.8912,-0.3010,-0.5742,0.2874,0.2492,-0.1600,0.2786,28.4400,-22.1400,-29.2200,10240.0000,0.0,0.0,0.0,
29.5630,-0.0782,0.3987,0.8912,-0.3010,-0.5742,0.2874,-0.0147,0.0037,0.1148,28.4400,-22.1400,-29.2200,10240.0000,0.0,0.0,0.0,
29.5680,-0.0782,0.3987,0.8912,-0.6632,-0.6165,0.2718,-0.0147,0.0037,0.1148,28.4400,-22.1400,-29.2200,10240.0000,0.0,0.0,0.0,
29.5720,-0.0782,0.3987,0.8912,-0.6632,-0.6165,0.2718,-0.0147,0.0037,0.1148,28.3800,-22.7400,-28.7400,10240.0000,0.0,0.0,0.0,
29.6400,-0.0586,0.4691,0.8131,-0.6632,-0.6165,0.2718,-0.0147,0.0037,0.1148,28.3800,-22.7400,-28.7400,10240.0000,0.0,0.0,0.0,
29.6430,-0.0586,0.4691,0.8131,-0.6632,-0.6165,0.2718,-0.0147,0.0037,0.1148,28.1400,-23.2200,-28.8000,10240.0000,0.0,0.0,0.0,
29.7600,-0.0586,0.4691,0.8131,-0.6632,-0.6165,0.2718,-0.2211,0.0965,0.0843,28.1400,-23.2200,-28.8000,10240.0000,0.0,0.0,0.0,
29.7620,-0.0586,0.4691,0.8131,-0.3473,0.2702,-0.1629,-0.2211,0.0965,0.0843,28.1400,-23.2200,-28.8000,10240.0000,0.0,0.0,0.0,
29.7640,-0.0586,0.4691,0.8131,-0.3473,0.2702,-0.1629,-0.2211,0.0965,0.0843,27.9600,-23.8800,-28.5600,10240.0000,0.0,0.0,0.0,
29.8300,0.0117,0.5121,0.9460,-0.3473,0.2702,-0.1629,-0.2211,0.0965,0.0843,27.9600,-23.8800,-28.5600,10240.0000,0.0,0.0,0.0,
29.8330,0.0117,0.5121,0.9460,-0.3473,0.2702,-0.1629,-0.2211,0.0965,0.0843,27.8400,-24.3600,-28.6200,10240.0000,0.0,0.0,0.0,
29.9600,0.0117,0.5121,0.9460,-0.3473,0.2702,-0.1629,-0.2260,0.0550,-0.0379,27.8400,-24.3600,-28.6200,10240.0000,0.0,0.0,0.0,
29.9630,0.0117,0.5121,0.9460,0.3344,0.2219,-0.1090,-0.2260,0.0550,-0.0379,27.8400,-24.3600,-28.6200,10240.0000,0.0,0.0,0.0,
29.9690,0.0117,0.5121,0.9460,0.3344,0.2219,-0.1090,-0.2260,0.0550,-0.0379,27.7800,-24.4200,-28.4400,10240.0000,0.0,0.0,0.0,
30.0380,0.0117,0.5121,0.9460,0.3344,0.2219,-0.1090,-0.2260,0.0550,-0.0379,27.6600,-24.6000,-28.3800,10240.0000,0.0,0.0,0.0,
30.0410,0.0430,0.4652,0.9890,0.3344,0.2219,-0.1090,-0.2260,0.0550,-0.0379,27.6600,-24.6000,-28.3800,10240.0000,0.0,0.0,0.0,
30.3220,0.0430,0.4652,0.9890,0.3344,0.2219,-0.1090,-0.2260,0.0550,-0.0379,27.4800,-24.7800,-28.5600,10240.0000,0.0,0.0,0.0,
30.3230,0.0430,0.4652,0.9890,0.3344,0.2219,-0.1090,-0.3323,-0.1747,-0.2346,27.4800,-24.7800,-28.5600,10240.0000,0.0,0.0,0.0,
30.3240,0.0430,0.4652,0.9890,0.3423,0.0963,-0.0481,-0.3323,-0.1747,-0.2346,27.4800,-24.7800,-28.5600,10240.0000,0.0,0.0,0.0,
30.3250,0.0430,0.4652,0.9890,0.3423,0.0963,-0.0481,-0.3323,-0.1747,-0.2346,27.3600,-24.8400,-28.6200,10240.0000,0.0,0.0,0.0,
30.3270,-0.0195,0.3596,0.8482,0.3423,0.0963,-0.0481,-0.3323,-0.1747,-0.2346,27.3600,-24.8400,-28.6200,10240.0000,0.0,0.0,0.0,
30.3560,-0.0195,0.3596,0.8482,0.3423,0.0963,-0.0481,0.0831,0.0770,-0.2566,27.3600,-24.8400,-28.6200,10240.0000,0.0,0.0,0.0,
30.3570,-0.0195,0.3596,0.8482,-0.1708,-0.0163,0.0097,0.0831,0.0770,-0.2566,27.3600,-24.8400,-28.6200,10240.0000,0.0,0.0,0.0,
30.3580,-0.0195,0.3596,0.8482,-0.1708,-0.0163,0.0097,0.0831,0.0770,-0.2566,27.3000,-24.7200,-28.7400,10240.0000,0.0,0.0,0.0,
30.4230,-0.0195,0.3596,0.8482,-0.1708,-0.0163,0.0097,0.0831,0.0770,-0.2566,27.1200,-24.7200,-28.8000,10240.0000,0.0,0.0,0.0,
30.4250,0.0352,0.4065,0.7740,-0.1708,-0.0163,0.0097,0.0831,0.0770,-0.2566,27.1200,-24.7200,-28.8000,10240.0000,0.0,0.0,0.0,
30.5600,0.0352,0.4065,0.7740,-0.1708,-0.0163,0.0097,0.0831,0.0770,-0.2566,27.2400,-24.6600,-29.0400,10240.0000,0.0,0.0,0.0,
30.5640,0.0352,0.4065,0.7740,-0.1708,-0.0163,0.0097,0.2407,-0.0232,-0.1869,27.2400,-24.6600,-29.0400,10240.0000,0.0,0.0,0.0,
30.5690,0.0352,0.4065,0.7740,0.4069,0.2180,-0.1136,0.2407,-0.0232,-0.1869,27.2400,-24.6600,-29.0400,10240.0000,0.0,0.0,0.0,
30.6280,0.0352,0.4065,0.7740,0.4069,0.2180,-0.1136,0.2407,-0.0232,-0.1869,27.1800,-24.6600,-28.8600,10240.0000,0.0,0.0,0.0,
30.6310,-0.0430,0.4026,0.8717,0.4069,0.2180,-0.1136,0.2407,-0.0232,-0.1869,27.1800,-24.6600,-28.8600,10240.0000,0.0,0.0,0.0,
30.7570,-0.0430,0.4026,0.8717,0.4069,0.2180,-0.1136,0.2407,-0.0232,-0.1869,27.6600,-24.7800,-28.4400,10240.0000,0.0,0.0,0.0,
30.7590,-0.0430,0.4026,0.8717,0.4069,0.2180,-0.1136,-0.0733,0.3629,-0.9969,27.6600,-24.7800,-28.4400,10240.0000,0.0,0.0,0.0,
30.7920,-0.0430,0.4026,0.8717,-0.0363,-0.2280,0.1160,-0.0733,0.3629,-0.9969,27.6600,-24.7800,-28.4400,10240.0000,0.0,0.0,0.0,
30.8220,-0.0430,0.4026,0.8717,-0.0363,-0.2280,0.1160,-0.0733,0.3629,-0.9969,28.6800,-24.2400,-27.6600,10240.0000,0.0,0.0,0.0,
30.8330,-0.2463,0.5433,1.0632,-0.0363,-0.2280,0.1160,-0.0733,0.3629,-0.9969,28.6800,-24.2400,-27.6600,10240.0000,0.0,0.0,0.0,
30.9540,-0.2463,0.5433,1.0632,-0.0363,-0.2280,0.1160,-0.0733,0.3629,-0.9969,30.1200,-23.1600,-26.7600,10240.0000,0.0,0.0,0.0,
30.9560,-0.2463,0.5433,1.0632,-0.0363,-0.2280,0.1160,-0.9420,1.3109,0.5082,30.1200,-23.1600,-26.7600,10240.0000,0.0,0.0,0.0,
30.9580,-0.2463,0.5433,1.0632,-0.0113,0.1035,-0.0387,-0.9420,1.3109,0.5082,30.1200,-23.1600,-26.7600,10240.0000,0.0,0.0,0.0,
31.0200,-0.2463,0.5433,1.0632,-0.0113,0.1035,-0.0387,-0.9420,1.3109,0.5082,30.8400,-22.1400,-26.7000,10240.0000,0.0,0.0,0.0,
31.0260,-0.0586,0.2619,1.0202,-0.0113,0.1035,-0.0387,-0.9420,1.3109,0.5082,30.8400,-22.1400,-26.7000,10240.0000,0.0,0.0,0.0,
31.1520,-0.0586,0.2619,1.0202,-0.0113,0.1035,-0.0387,-0.9420,1.3109,0.5082,31.2600,-21.4200,-26.4600,10240.0000,0.0,0.0,0.0,
31.1610,-0.0586,0.2619,1.0202,-0.0113,0.1035,-0.0387,0.6219,-1.2828,-0.1075,31.2600,-21.4200,-26.4600,10240.0000,0.0,0.0,0.0,
31.1630,-0.0586,0.2619,1.0202,0.0761,-0.3006,0.0936,0.6219,-1.2828,-0.1075,31.2600,-21.4200,-26.4600,10240.0000,0.0,0.0,0.0,
31.2200,-0.0586,0.2619,1.0202,0.0761,-0.3006,0.0936,0.6219,-1.2828,-0.1075,32.1600,-20.5800,-26.2200,10240.0000,0.0,0.0,0.0,
31.2290,-0.1915,0.3635,0.7153,0.0761,-0.3006,0.0936,0.6219,-1.2828,-0.1075,32.1600,-20.5800,-26.2200,10240.0000,0.0,0.0,0.0,
31.3510,-0.1915,0.3635,0.7153,0.0761,-0.3006,0.0936,0.6219,-1.2828,-0.1075,32.7000,-20.1000,-25.9200,10240.0000,0.0,0.0,0.0,
31.3560,-0.1915,0.3635,0.7153,0.0761,-0.3006,0.0936,0.2028,0.4472,-0.1307,32.7000,-20.1000,-25.9200,10240.0000,0.0,0.0,0.0,
31.3570,-0.1915,0.3635,0.7153,-0.7270,0.3455,-0.3086,0.2028,0.4472,-0.1307,32.7000,-20.1000,-25.9200,10240.0000,0.0,0.0,0.0,
31.4190,-0.1915,0.3635,0.7153,-0.7270,0.3455,-0.3086,0.2028,0.4472,-0.1307,33.1200,-19.6800,-25.6800,10240.0000,0.0,0.0,0.0,
31.4380,-0.0469,0.5512,1.0437,-0.7270,0.3455,-0.3086,0.2028,0.4472,-0.1307,33.1200,-19.6800,-25.6800,10240.0000,0.0,0.0,0.0,
31.5490,-0.0469,0.5512,1.0437,-0.7270,0.3455,-0.3086,0.2028,0.4472,-0.1307,33.0600,-19.3200,-25.9800,10240.0000,0.0,0.0,0.0,
31.5630,-0.0469,0.5512,1.0437,-0.7270,0.3455,-0.3086,0.3861,-0.2663,0.2468,33.0600,-19.3200,-25.9800,10240.0000,0.0,0.0,0.0,
31.5650,-0.0469,0.5512,1.0437,0.4747,0.0033,0.0509,0.3861,-0.2663,0.2468,33.0600,-19.3200,-25.9800,10240.0000,0.0,0.0,0.0,
31.6150,-0.0469,0.5512,1.0437,0.4747,0.0033,0.0509,0.3861,-0.2663,0.2468,32.2200,-19.8000,-26.7000,10240.0000,0.0,0.0,0.0,
31.6260,0.1251,0.4183,0.7779,0.4747,0.0033,0.0509,0.3861,-0.2663,0.2468,32.2200,-19.8000,-26.7000,10240.0000,0.0,0.0,0.0,
31.7490,0.1251,0.4183,0.7779,0.4747,0.0033,0.0509,0.3861,-0.2663,0.2468,31.0200,-21.0000,-27.4800,10240.0000,0.0,0.0,0.0,
31.7580,0.1251,0.4183,0.7779,0.4747,0.0033,0.0509,0.2236,-1.0959,-0.0745,31.0200,-21.0000,-27.4800,10240.0000,0.0,0.0,0.0,
31.7610,0.1251,0.4183,0.7779,0.0393,-0.2538,0.1482,0.2236,-1.0959,-0.0745,31.0200,-21.0000,-27.4800,10240.0000,0.0,0.0,0.0,
31.8260,0.1251,0.4183,0.7779,0.0393,-0.2538,0.1482,0.2236,-1.0959,-0.0745,30.2400,-21.9600,-27.5400,10240.0000,0.0,0.0,0.0,
31.8290,0.0430,0.5238,0.7036,0.0393,-0.2538,0.1482,0.2236,-1.0959,-0.0745,30.2400,-21.9600,-27.5400,10240.0000,0.0,0.0,0.0,
31.9500,0.0430,0.5238,0.7036,0.0393,-0.2538,0.1482,0.2236,-1.0959,-0.0745,30.0600,-22.9800,-27.6000,10240.0000,0.0,0.0,0.0,
31.9590,0.0430,0.5238,0.7036,0.0393,-0.2538,0.1482,0.3286,0.1979,-0.0318,30.0600,-22.9800,-27.6000,10240.0000,0.0,0.0,0.0,
31.9630,0.0430,0.5238,0.7036,-0.7665,0.1931,-0.0416,0.3286,0.1979,-0.0318,30.0600,-22.9800,-27.6000,10240.0000,0.0,0.0,0.0,
32.0150,0.0430,0.5238,0.7036,-0.7665,0.1931,-0.0416,0.3286,0.1979,-0.0318,29.5200,-23.8800,-27.8400,10240.0000,0.0,0.0,0.0,
32.0380,-0.0704,0.6489,0.8678,-0.7665,0.1931,-0.0416,0.3286,0.1979,-0.0318,29.5200,-23.8800,-27.8400,10240.0000,0.0,0.0,0.0,
32.2900,-0.0704,0.6489,0.8678,-0.7665,0.1931,-0.0416,0.3286,0.1979,-0.0318,28.9800,-24.7200,-27.7200,10240.0000,0.0,0.0,0.0,
32.2920,-0.0704,0.6489,0.8678,-0.7665,0.1931,-0.0416,-0.3384,-0.0635,0.2236,28.9800,-24.7200,-27.7200,10240.0000,0.0,0.0,0.0,
32.2920,-0.0704,0.6489,0.8678,-1.0533,0.0700,-0.0481,-0.3384,-0.0635,0.2236,28.9800,-24.7200,-27.7200,10240.0000,0.0,0.0,0.0,
32.2930,-0.0704,0.6489,0.8678,-1.0533,0.0700,-0.0481,-0.3384,-0.0635,0.2236,28.6200,-25.4400,-27.9600,10240.0000,0.0,0.0,0.0,
32.2940,0.0430,0.4065,1.0163,-1.0533,0.0700,-0.0481,-0.3384,-0.0635,0.2236,28.6200,-25.4400,-27.9600,10240.0000,0.0,0.0,0.0,
32.3430,0.0430,0.4065,1.0163,-1.0533,0.0700,-0.0481,-0.3384,-0.0635,0.2236,28.2000,-26.2200,-27.8400,10240.0000,0.0,0.0,0.0,
32.3560,0.0430,0.4065,1.0163,-1.0533,0.0700,-0.0481,0.5034,-0.2981,0.1747,28.2000,-26.2200,-27.8400,10240.0000,0.0,0.0,0.0,
32.3570,0.0430,0.4065,1.0163,-0.1335,-0.5985,0.2896,0.5034,-0.2981,0.1747,28.2000,-26.2200,-27.8400,10240.0000,0.0,0.0,0.0,
32.4100,0.0430,0.4065,1.0163,-0.1335,-0.5985,0.2896,0.5034,-0.2981,0.1747,28.0800,-26.7000,-27.6600,10240.0000,0.0,0.0,0.0,
32.4260,0.0195,0.5785,0.6450,-0.1335,-0.5985,0.2896,0.5034,-0.2981,0.1747,28.0800,-26.7000,-27.6600,10240.0000,0.0,0.0,0.0,
32.5450,0.0195,0.5785,0.6450,-0.1335,-0.5985,0.2896,0.5034,-0.2981,0.1747,27.6000,-27.1200,-27.5400,10240.0000,0.0,0.0,0.0,
32.5600,0.0195,0.5785,0.6450,-0.1335,-0.5985,0.2896,-0.0916,-0.1161,0.0269,27.6000,-27.1200,-27.5400,10240.0000,0.0,0.0,0.0,
32.5630,0.0195,0.5785,0.6450,-0.3900,1.0152,-0.7362,-0.0916,-0.1161,0.0269,27.6000,-27.1200,-27.5400,10240.0000,0.0,0.0,0.0,
32.6100,0.0195,0.5785,0.6450,-0.3900,1.0152,-0.7362,-0.0916,-0.1161,0.0269,27.5400,-27.7200,-27.3000,10240.0000,0.0,0.0,0.0,
32.6300,0.1094,0.5824,1.0202,-0.3900,1.0152,-0.7362,-0.0916,-0.1161,0.0269,27.5400,-27.7200,-27.3000,10240.0000,0.0,0.0,0.0,
32.7440,0.1094,0.5824,1.0202,-0.3900,1.0152,-0.7362,-0.0916,-0.1161,0.0269,27.0600,-28.0800,-27.1200,10240.0000,0.0,0.0,0.0,
32.7580,0.1094,0.5824,1.0202,-0.3900,1.0152,-0.7362,-0.0122,0.5974,-0.0208,27.0600,-28.0800,-27.1200,10240.0000,0.0,0.0,0.0,
32.7620,0.1094,0.5824,1.0202,0.3665,-0.3915,0.2446,-0.0122,0.5974,-0.0208,27.0600,-28.0800,-27.1200,10240.0000,0.0,0.0,0.0,
32.8100,0.1094,0.5824,1.0202,0.3665,-0.3915,0.2446,-0.0122,0.5974,-0.0208,26.6400,-28.5600,-27.0000,10240.0000,0.0,0.0,0.0,
32.8290,0.1251,0.4065,0.7935,0.3665,-0.3915,0.2446,-0.0122,0.5974,-0.0208,26.6400,-28.5600,-27.0000,10240.0000,0.0,0.0,0.0,
32.9410,0.1251,0.4065,0.7935,0.3665,-0.3915,0.2446,-0.0122,0.5974,-0.0208,26.4000,-28.7400,-27.2400,10240.0000,0.0,0.0,0.0,
32.9590,0.1251,0.4065,0.7935,0.3665,-0.3915,0.2446,0.2065,-0.8430,-0.2566,26.4000,-28.7400,-27.2400,10240.0000,0.0,0.0,0.0,
32.9630,0.1251,0.4065,0.7935,0.3893,-0.5051,0.2711,0.2065,-0.8430,-0.2566,26.4000,-28.7400,-27.2400,10240.0000,0.0,0.0,0.0,
33.0110,0.1251,0.4065,0.7935,0.3893,-0.5051,0.2711,0.2065,-0.8430,-0.2566,26.2200,-28.9800,-27.1800,10240.0000,0.0,0.0,0.0,
33.0300,0.1055,0.5512,0.7701,0.3893,-0.5051,0.2711,0.2065,-0.8430,-0.2566,26.2200,-28.9800,-27.1800,10240.0000,0.0,0.0,0.0,
33.1410,0.1055,0.5512,0.7701,0.3893,-0.5051,0.2711,0.2065,-0.8430,-0.2566,26.1600,-29.1600,-27.0600,10240.0000,0.0,0.0,0.0,
33.1590,0.1055,0.5512,0.7701,0.3893,-0.5051,0.2711,-0.2419,0.1210,-0.1698,26.1600,-29.1600,-27.0600,10240.0000,0.0,0.0,0.0,
33.1630,0.1055,0.5512,0.7701,-0.0407,0.3716,-0.1944,-0.2419,0.1210,-0.1698,26.1600,-29.1600,-27.0600,10240.0000,0.0,0.0,0.0,
33.2100,0.1055,0.5512,0.7701,-0.0407,0.3716,-0.1944,-0.2419,0.1210,-0.1698,26.2800,-28.9800,-27.0600,10240.0000,0.0,0.0,0.0,
33.2360,-0.0743,0.7505,0.9030,-0.0407,0.3716,-0.1944,-0.2419,0.1210,-0.1698,26.2800,-28.9800,-27.0600,10240.0000,0.0,0.0,0.0,
33.3430,-0.0743,0.7505,0.9030,-0.0407,0.3716,-0.1944,-0.2419,0.1210,-0.1698,26.5800,-28.9200,-26.8800,10240.0000,0.0,0.0,0.0,
33.3600,-0.0743,0.7505,0.9030,-0.0407,0.3716,-0.1944,-0.4349,-0.5046,0.3348,26.5800,-28.9200,-26.8800,10240.0000,0.0,0.0,0.0,
33.3630,-0.0743,0.7505,0.9030,-0.5674,0.4031,-0.3075,-0.4349,-0.5046,0.3348,26.5800,-28.9200,-26.8800,10240.0000,0.0,0.0,0.0,
33.4060,-0.0743,0.7505,0.9030,-0.5674,0.4031,-0.3075,-0.4349,-0.5046,0.3348,26.5200,-28.8000,-27.0000,10240.0000,0.0,0.0,0.0,
33.4390,0.0039,0.4417,0.8912,-0.5674,0.4031,-0.3075,-0.4349,-0.5046,0.3348,26.5200,-28.8000,-27.0000,10240.0000,0.0,0.0,0.0,
33.5400,0.0039,0.4417,0.8912,-0.5674,0.4031,-0.3075,-0.4349,-0.5046,0.3348,26.5800,-28.7400,-27.3000,10240.0000,0.0,0.0,0.0,
33.5600,0.0039,0.4417,0.8912,-0.5674,0.4031,-0.3075,0.4410,-0.4386,0.1344,26.5800,-28.7400,-27.3000,10240.0000,0.0,0.0,0.0,
33.5630,0.0039,0.4417,0.8912,-0.1356,-0.4886,0.2959,0.4410,-0.4386,0.1344,26.5800,-28.7400,-27.3000,10240.0000,0.0,0.0,0.0,
33.6300,-0.0039,0.6215,0.6645,-0.1356,-0.4886,0.2959,0.4410,-0.4386,0.1344,26.5800,-28.7400,-27.3000,10240.0000,0.0,0.0,0.0,
33.6790,-0.0039,0.6215,0.6645,-0.1356,-0.4886,0.2959,0.4410,-0.4386,0.1344,26.7600,-28.8600,-27.0600,10240.0000,0.0,0.0,0.0,
33.7420,-0.0039,0.6215,0.6645,-0.1356,-0.4886,0.2959,0.4410,-0.4386,0.1344,26.6400,-29.0400,-26.8200,10240.0000,0.0,0.0,0.0,
33.7580,-0.0039,0.6215,0.6645,-0.1356,-0.4886,0.2959,-0.3372,0.2578,-0.1344,26.6400,-29.0400,-26.8200,10240.0000,0.0,0.0,0.0,
33.7620,-0.0039,0.6215,0.6645,-0.1522,0.5950,-0.4775,-0.3372,0.2578,-0.1344,26.6400,-29.0400,-26.8200,10240.0000,0.0,0.0,0.0,
33.8380,0.0625,0.6645,0.8951,-0.1522,0.5950,-0.4775,-0.3372,0.2578,-0.1344,26.6400,-29.0400,-26.8200,10240.0000,0.0,0.0,0.0,
33.8680,0.0625,0.6645,0.8951,-0.1522,0.5950,-0.4775,-0.3372,0.2578,-0.1344,26.7600,-29.2800,-26.5200,10240.0000,0.0,0.0,0.0,
33.9330,0.0625,0.6645,0.8951,-0.1522,0.5950,-0.4775,-0.3372,0.2578,-0.1344,26.9400,-29.3400,-26.5200,10240.0000,0.0,0.0,0.0,
33.9600,0.0625,0.6645,0.8951,-0.1522,0.5950,-0.4775,-0.2382,0.2419,0.1747,26.9400,-29.3400,-26.5200,10240.0000,0.0,0.0,0.0,
33.9630,0.0625,0.6645,0.8951,0.4731,0.0679,-0.0289,-0.2382,0.2419,0.1747,26.9400,-29.3400,-26.5200,10240.0000,0.0,0.0,0.0,
34.0300,0.0547,0.4769,0.8131,0.4731,0.0679,-0.0289,-0.2382,0.2419,0.1747,26.9400,-29.3400,-26.5200,10240.0000,0.0,0.0,0.0,
34.0650,0.0547,0.4769,0.8131,0.4731,0.0679,-0.0289,-0.2382,0.2419,0.1747,26.7000,-29.7600,-26.4600,10240.0000,0.0,0.0,0.0,
34.3530,0.0547,0.4769,0.8131,0.4731,0.0679,-0.0289,-0.2382,0.2419,0.1747,26.5200,-29.9400,-26.2800,10240.0000,0.0,0.0,0.0,
34.3560,0.0547,0.4769,0.8131,0.4731,0.0679,-0.0289,0.1625,-0.8418,-0.1784,26.5200,-29.9400,-26.2800,10240.0000,0.0,0.0,0.0,
34.3570,0.0547,0.4769,0.8131,0.2183,-0.4149,0.2933,0.1625,-0.8418,-0.1784,26.5200,-29.9400,-26.2800,10240.0000,0.0,0.0,0.0,
34.3590,0.0625,0.5746,0.7349,0.2183,-0.4149,0.2933,0.1625,-0.8418,-0.1784,26.5200,-29.9400,-26.2800,10240.0000,0.0,0.0,0.0,
34.3600,0.0625,0.5746,0.7349,0.2183,-0.4149,0.2933,0.1625,-0.8418,-0.1784,26.8800,-30.1200,-25.9800,10240.0000,0.0,0.0,0.0,
34.3610,0.0625,0.5746,0.7349,0.2183,-0.4149,0.2933,0.1625,-0.8418,-0.1784,27.3600,-30.3000,-25.2600,10240.0000,0.0,0.0,0.0,
34.3630,0.0625,0.5746,0.7349,0.2183,-0.4149,0.2933,0.5510,0.2248,-0.1356,27.3600,-30.3000,-25.2600,10240.0000,0.0,0.0,0.0,
34.3640,0.0625,0.5746,0.7349,0.0605,0.0185,0.0328,0.5510,0.2248,-0.1356,27.3600,-30.3000,-25.2600,10240.0000,0.0,0.0,0.0,
34.4260,-0.0625,0.6997,0.8678,0.0605,0.0185,0.0328,0.5510,0.2248,-0.1356,27.3600,-30.3000,-25.2600,10240.0000,0.0,0.0,0.0,
34.4570,-0.0625,0.6997,0.8678,0.0605,0.0185,0.0328,0.5510,0.2248,-0.1356,27.6600,-30.3600,-25.0800,10240.0000,0.0,0.0,0.0,
34.5230,-0.0625,0.6997,0.8678,0.0605,0.0185,0.0328,0.5510,0.2248,-0.1356,27.9000,-30.3600,-24.7800,10240.0000,0.0,0.0,0.0,
34.5630,-0.0625,0.6997,0.8678,0.0605,0.0185,0.0328,-0.7404,-0.2101,0.2248,27.9000,-30.3600,-24.7800,10240.0000,0.0,0.0,0.0,
34.5650,-0.0625,0.6997,0.8678,-0.4868,0.0387,-0.0061,-0.7404,-0.2101,0.2248,27.9000,-30.3600,-24.7800,10240.0000,0.0,0.0,0.0,
34.6300,0.0313,0.4730,0.7153,-0.4868,0.0387,-0.0061,-0.7404,-0.2101,0.2248,27.9000,-30.3600,-24.7800,10240.0000,0.0,0.0,0.0,
34.6630,0.0313,0.4730,0.7153,-0.4868,0.0387,-0.0061,-0.7404,-0.2101,0.2248,27.8400,-30.3000,-24.9000,10240.0000,0.0,0.0,0.0,
34.7260,0.0313,0.4730,0.7153,-0.4868,0.0387,-0.0061,-0.7404,-0.2101,0.2248,27.4200,-30.3000,-24.7200,10240.0000,0.0,0.0,0.0,
34.7600,0.0313,0.4730,0.7153,-0.4868,0.0387,-0.0061,0.5400,-0.2334,-0.0232,27.4200,-30.3000,-24.7200,10240.0000,0.0,0.0,0.0,
34.7640,0.0313,0.4730,0.7153,0.0958,-0.1221,0.1275,0.5400,-0.2334,-0.0232,27.4200,-30.3000,-24.7200,10240.0000,0.0,0.0,0.0,
34.8300,-0.0274,0.6567,0.7231,0.0958,-0.1221,0.1275,0.5400,-0.2334,-0.0232,27.4200,-30.3000,-24.7200,10240.0000,0.0,0.0,0.0,
34.8590,-0.0274,0.6567,0.7231,0.0958,-0.1221,0.1275,0.5400,-0.2334,-0.0232,27.6000,-30.4800,-24.3600,10240.0000,0.0,0.0,0.0,
34.9230,-0.0274,0.6567,0.7231,0.0958,-0.1221,0.1275,0.5400,-0.2334,-0.0232,27.7800,-30.7200,-24.1200,10240.0000,0.0,0.0,0.0,
34.9600,-0.0274,0.6567,0.7231,0.0958,-0.1221,0.1275,-0.0709,0.0134,0.1210,27.7800,-30.7200,-24.1200,10240.0000,0.0,0.0,0.0,
34.9630,-0.0274,0.6567,0.7231,-0.4181,0.3558,-0.2607,-0.0709,0.0134,0.1210,27.7800,-30.7200,-24.1200,10240.0000,0.0,0.0,0.0,
35.0300,0.0704,0.4925,1.2157,-0.4181,0.3558,-0.2607,-0.0709,0.0134,0.1210,27.7800,-30.7200,-24.1200,10240.0000,0.0,0.0,0.0,
35.0580,0.0704,0.4925,1.2157,-0.4181,0.3558,-0.2607,-0.0709,0.0134,0.1210,27.4200,-30.9000,-24.0600,10240.0000,0.0,0.0,0.0,
35.1230,0.0704,0.4925,1.2157,-0.4181,0.3558,-0.2607,-0.0709,0.0134,0.1210,26.9400,-30.9600,-24.2400,10240.0000,0.0,0.0,0.0,
35.1600,0.0704,0.4925,1.2157,-0.4181,0.3558,-0.2607,-0.4227,0.0831,-0.2138,26.9400,-30.9600,-24.2400,10240.0000,0.0,0.0,0.0,
35.1630,0.0704,0.4925,1.2157,0.3734,-0.7536,0.3810,-0.4227,0.0831,-0.2138,26.9400,-30.9600,-24.2400,10240.0000,0.0,0.0,0.0,
35.2310,0.0469,0.4652,0.5160,0.3734,-0.7536,0.3810,-0.4227,0.0831,-0.2138,26.9400,-30.9600,-24.2400,10240.0000,0.0,0.0,0.0,
35.2590,0.0469,0.4652,0.5160,0.3734,-0.7536,0.3810,-0.4227,0.0831,-0.2138,26.7000,-30.9000,-24.4200,10240.0000,0.0,0.0,0.0,
35.3200,0.0469,0.4652,0.5160,0.3734,-0.7536,0.3810,-0.4227,0.0831,-0.2138,26.5200,-30.9000,-24.7200,10240.0000,0.0,0.0,0.0,
35.3600,0.0469,0.4652,0.5160,0.3734,-0.7536,0.3810,0.0305,0.0122,-0.2541,26.5200,-30.9000,-24.7200,10240.0000,0.0,0.0,0.0,
35.3630,0.0469,0.4652,0.5160,0.4894,1.3554,-0.9916,0.0305,0.0122,-0.2541,26.5200,-30.9000,-24.7200,10240.0000,0.0,0.0,0.0,
35.4300,0.0430,0.7349,0.7974,0.4894,1.3554,-0.9916,0.0305,0.0122,-0.2541,26.5200,-30.9000,-24.7200,10240.0000,0.0,0.0,0.0,
35.4520,0.0430,0.7349,0.7974,0.4894,1.3554,-0.9916,0.0305,0.0122,-0.2541,26.5200,-30.7800,-24.6000,10240.0000,0.0,0.0,0.0,
35.5190,0.0430,0.7349,0.7974,0.4894,1.3554,-0.9916,0.0305,0.0122,-0.2541,26.7600,-30.9000,-24.6600,10240.0000,0.0,0.0,0.0,
35.5600,0.0430,0.7349,0.7974,0.4894,1.3554,-0.9916,-0.0990,-0.1112,0.0208,26.7600,-30.9000,-24.6600,10240.0000,0.0,0.0,0.0,
35.5630,0.0430,0.7349,0.7974,0.2425,0.9082,-0.6898,-0.0990,-0.1112,0.0208,26.7600,-30.9000,-24.6600,10240.0000,0.0,0.0,0.0,
35.6290,-0.0704,0.6215,0.8482,0.2425,0.9082,-0.6898,-0.0990,-0.1112,0.0208,26.7600,-30.9000,-24.6600,10240.0000,0.0,0.0,0.0,
35.6720,-0.0704,0.6215,0.8482,0.2425,0.9082,-0.6898,-0.0990,-0.1112,0.0208,27.0000,-30.5400,-24.8400,10240.0000,0.0,0.0,0.0,
35.7150,-0.0704,0.6215,0.8482,0.2425,0.9082,-0.6898,-0.0990,-0.1112,0.0208,26.8200,-30.2400,-25.0800,10240.0000,0.0,0.0,0.0,
35.7600,-0.0704,0.6215,0.8482,0.2425,0.9082,-0.6898,-0.2456,0.5400,0.1881,26.8200,-30.2400,-25.0800,10240.0000,0.0,0.0,0.0,
35.7610,-0.0704,0.6215,0.8482,-0.0240,0.1030,-0.0383,-0.2456,0.5400,0.1881,26.8200,-30.2400,-25.0800,10240.0000,0.0,0.0,0.0,
35.8340,0.0000,0.4026,0.5551,-0.0240,0.1030,-0.0383,-0.2456,0.5400,0.1881,26.8200,-30.2400,-25.0800,10240.0000,0.0,0.0,0.0,
35.8520,0.0000,0.4026,0.5551,-0.0240,0.1030,-0.0383,-0.2456,0.5400,0.1881,26.9400,-29.9400,-25.2600,10240.0000,0.0,0.0,0.0,
35.9190,0.0000,0.4026,0.5551,-0.0240,0.1030,-0.0383,-0.2456,0.5400,0.1881,27.0600,-29.8800,-25.3800,10240.0000,0.0,0.0,0.0,
35.9580,0.0000,0.4026,0.5551,-0.0240,0.1030,-0.0383,0.3494,0.0611,-0.0354,27.0600,-29.8800,-25.3800,10240.0000,0.0,0.0,0.0,
35.9620,0.0000,0.4026,0.5551,0.6125,-0.0707,0.1176,0.3494,0.0611,-0.0354,27.0600,-29.8800,-25.3800,10240.0000,0.0,0.0,0.0,
36.0300,0.0313,0.7388,1.0867,0.6125,-0.0707,0.1176,0.3494,0.0611,-0.0354,27.0600,-29.8800,-25.3800,10240.0000,0.0,0.0,0.0,
36.0490,0.0313,0.7388,1.0867,0.6125,-0.0707,0.1176,0.3494,0.0611,-0.0354,27.1800,-29.8200,-25.2600,10240.0000,0.0,0.0,0.0,
36.3300,0.0313,0.7388,1.0867,0.6125,-0.0707,0.1176,0.3494,0.0611,-0.0354,27.2400,-29.8800,-25.0200,10240.0000,0.0,0.0,0.0,
36.3310,0.0313,0.7388,1.0867,0.6125,-0.0707,0.1176,-0.5828,0.1051,0.0452,27.2400,-29.8800,-25.0200,10240.0000,0.0,0.0,0.0,
36.3320,0.0313,0.7388,1.0867,0.6095,-0.1151,0.1381,-0.5828,0.1051,0.0452,27.2400,-29.8800,-25.0200,10240.0000,0.0,0.0,0.0,
36.3330,0.2619,0.6801,0.7271,0.6095,-0.1151,0.1381,-0.5828,0.1051,0.0452,27.2400,-29.8800,-25.0200,10240.0000,0.0,0.0,0.0,
36.3340,0.2619,0.6801,0.7271,0.6095,-0.1151,0.1381,-0.5828,0.1051,0.0452,27.2400,-30.1800,-24.6600,10240.0000,0.0,0.0,0.0,
36.3390,0.2619,0.6801,0.7271,0.6095,-0.1151,0.1381,-0.5828,0.1051,0.0452,26.9400,-30.6600,-24.3600,10240.0000,0.0,0.0,0.0,
36.3550,0.2619,0.6801,0.7271,0.6095,-0.1151,0.1381,-0.2211,0.0440,-0.3665,26.9400,-30.6600,-24.3600,10240.0000,0.0,0.0,0.0,
36.3560,0.2619,0.6801,0.7271,1.8634,0.4540,-0.7263,-0.2211,0.0440,-0.3665,26.9400,-30.6600,-24.3600,10240.0000,0.0,0.0,0.0,
36.4250,0.0821,0.4652,0.4730,1.8634,0.4540,-0.7263,-0.2211,0.0440,-0.3665,26.9400,-30.6600,-24.3600,10240.0000,0.0,0.0,0.0,
36.4430,0.0821,0.4652,0.4730,1.8634,0.4540,-0.7263,-0.2211,0.0440,-0.3665,26.7000,-30.9600,-24.3000,10240.0000,0.0,0.0,0.0,
36.5090,0.0821,0.4652,0.4730,1.8634,0.4540,-0.7263,-0.2211,0.0440,-0.3665,26.7000,-30.9600,-24.2400,10240.0000,0.0,0.0,0.0,
36.5560,0.0821,0.4652,0.4730,1.8634,0.4540,-0.7263,0.3494,0.2358,-0.3238,26.7000,-30.9600,-24.2400,10240.0000,0.0,0.0,0.0,
36.5590,0.0821,0.4652,0.4730,0.5947,0.1483,-0.1766,0.3494,0.2358,-0.3238,26.7000,-30.9600,-24.2400,10240.0000,0.0,0.0,0.0,
36.6300,0.0743,0.8560,0.9811,0.5947,0.1483,-0.1766,0.3494,0.2358,-0.3238,26.7000,-30.9600,-24.2400,10240.0000,0.0,0.0,0.0,
36.6450,0.0743,0.8560,0.9811,0.5947,0.1483,-0.1766,0.3494,0.2358,-0.3238,26.6400,-31.3800,-24.0600,10240.0000,0.0,0.0,0.0,
36.7110,0.0743,0.8560,0.9811,0.5947,0.1483,-0.1766,0.3494,0.2358,-0.3238,26.5200,-31.4400,-23.8800,10240.0000,0.0,0.0,0.0,
36.7580,0.0743,0.8560,0.9811,0.5947,0.1483,-0.1766,0.2590,0.1197,0.2920,26.5200,-31.4400,-23.8800,10240.0000,0.0,0.0,0.0,
36.7620,0.0743,0.8560,0.9811,0.1367,-0.3973,0.3887,0.2590,0.1197,0.2920,26.5200,-31.4400,-23.8800,10240.0000,0.0,0.0,0.0,
36.8300,0.0665,0.7114,0.9186,0.1367,-0.3973,0.3887,0.2590,0.1197,0.2920,26.5200,-31.4400,-23.8800,10240.0000,0.0,0.0,0.0,
36.8430,0.0665,0.7114,0.9186,0.1367,-0.3973,0.3887,0.2590,0.1197,0.2920,26.4000,-31.9800,-23.6400,10240.0000,0.0,0.0,0.0,
36.9110,0.0665,0.7114,0.9186,0.1367,-0.3973,0.3887,0.2590,0.1197,0.2920,26.1000,-32.2800,-23.6400,10240.0000,0.0,0.0,0.0,
36.9780,0.0665,0.7114,0.9186,0.1367,-0.3973,0.3887,0.2370,0.1197,-0.0415,26.1000,-32.2800,-23.6400,10240.0000,0.0,0.0,0.0,
36.9850,0.0665,0.7114,0.9186,0.0707,-0.6647,0.5869,0.2370,0.1197,-0.0415,26.1000,-32.2800,-23.6400,10240.0000,0.0,0.0,0.0,
37.0260,0.0704,0.5003,0.4495,0.0707,-0.6647,0.5869,0.2370,0.1197,-0.0415,26.1000,-32.2800,-23.6400,10240.0000,0.0,0.0,0.0,
37.0400,0.0704,0.5003,0.4495,0.0707,-0.6647,0.5869,0.2370,0.1197,-0.0415,25.8600,-32.4600,-23.8200,10240.0000,0.0,0.0,0.0,
37.1080,0.0704,0.5003,0.4495,0.0707,-0.6647,0.5869,0.2370,0.1197,-0.0415,25.8000,-32.4000,-23.9400,10240.0000,0.0,0.0,0.0,
37.1590,0.0704,0.5003,0.4495,0.0707,-0.6647,0.5869,0.1466,-0.1344,0.0489,25.8000,-32.4000,-23.9400,10240.0000,0.0,0.0,0.0,
37.1620,0.0704,0.5003,0.4495,0.2858,0.1147,-0.1506,0.1466,-0.1344,0.0489,25.8000,-32.4000,-23.9400,10240.0000,0.0,0.0,0.0,
37.2300,0.0469,0.8912,0.9890,0.2858,0.1147,-0.1506,0.1466,-0.1344,0.0489,25.8000,-32.4000,-23.9400,10240.0000,0.0,0.0,0.0,
37.2410,0.0469,0.8912,0.9890,0.2858,0.1147,-0.1506,0.1466,-0.1344,0.0489,25.5600,-32.8200,-23.7000,10240.0000,0.0,0.0,0.0,
37.3090,0.0469,0.8912,0.9890,0.2858,0.1147,-0.1506,0.1466,-0.1344,0.0489,25.2000,-33.3600,-23.3400,10240.0000,0.0,0.0,0.0,
37.3630,0.0469,0.8912,0.9890,0.2858,0.1147,-0.1506,0.7367,-0.2590,0.5669,25.2000,-33.3600,-23.3400,10240.0000,0.0,0.0,0.0,
37.3670,0.0469,0.8912,0.9890,-0.4672,-0.2617,0.3066,0.7367,-0.2590,0.5669,25.2000,-33.3600,-23.3400,10240.0000,0.0,0.0,0.0,
37.4310,0.1798,0.5277,0.6528,-0.4672,-0.2617,0.3066,0.7367,-0.2590,0.5669,25.2000,-33.3600,-23.3400,10240.0000,0.0,0.0,0.0,
37.4390,0.1798,0.5277,0.6528,-0.4672,-0.2617,0.3066,0.7367,-0.2590,0.5669,24.9000,-33.7800,-23.1000,10240.0000,0.0,0.0,0.0,
37.5060,0.1798,0.5277,0.6528,-0.4672,-0.2617,0.3066,0.7367,-0.2590,0.5669,24.7200,-33.9600,-23.0400,10240.0000,0.0,0.0,0.0,
37.5590,0.1798,0.5277,0.6528,-0.4672,-0.2617,0.3066,0.2883,-0.1210,-0.2236,24.7200,-33.9600,-23.0400,10240.0000,0.0,0.0,0.0,
37.5660,0.1798,0.5277,0.6528,0.2956,-0.6780,0.5189,0.2883,-0.1210,-0.2236,24.7200,-33.9600,-23.0400,10240.0000,0.0,0.0,0.0,
37.6300,0.0821,0.6450,0.4847,0.2956,-0.6780,0.5189,0.2883,-0.1210,-0.2236,24.7200,-33.9600,-23.0400,10240.0000,0.0,0.0,0.0,
37.6390,0.0821,0.6450,0.4847,0.2956,-0.6780,0.5189,0.2883,-0.1210,-0.2236,24.8400,-33.8400,-23.3400,10240.0000,0.0,0.0,0.0,
37.7050,0.0821,0.6450,0.4847,0.2956,-0.6780,0.5189,0.2883,-0.1210,-0.2236,25.0800,-33.9000,-23.3400,10240.0000,0.0,0.0,0.0,
37.7590,0.0821,0.6450,0.4847,0.2956,-0.6780,0.5189,-0.1943,0.0257,0.0232,25.0800,-33.9000,-23.3400,10240.0000,0.0,0.0,0.0,
37.7630,0.0821,0.6450,0.4847,-0.5037,0.4390,-0.4561,-0.1943,0.0257,0.0232,25.0800,-33.9000,-23.3400,10240.0000,0.0,0.0,0.0,
37.8380,0.0508,0.9850,0.8873,-0.5037,0.4390,-0.4561,-0.1943,0.0257,0.0232,25.0800,-33.9000,-23.3400,10240.0000,0.0,0.0,0.0,
37.8410,0.0508,0.9850,0.8873,-0.5037,0.4390,-0.4561,-0.1943,0.0257,0.0232,25.2600,-33.9000,-23.2200,10240.0000,0.0,0.0,0.0,
37.9020,0.0508,0.9850,0.8873,-0.5037,0.4390,-0.4561,-0.1943,0.0257,0.0232,25.5000,-34.0800,-23.1000,10240.0000,0.0,0.0,0.0,
37.9630,0.0508,0.9850,0.8873,-0.5037,0.4390,-0.4561,-0.4679,-0.2651,0.4337,25.5000,-34.0800,-23.1000,10240.0000,0.0,0.0,0.0,
37.9690,0.0508,0.9850,0.8873,-0.6691,0.0408,0.0372,-0.4679,-0.2651,0.4337,25.5000,-34.0800,-23.1000,10240.0000,0.0,0.0,0.0,
38.0390,0.0625,0.4652,0.5433,-0.6691,0.0408,0.0372,-0.4679,-0.2651,0.4337,25.5000,-34.0800,-23.1000,10240.0000,0.0,0.0,0.0,
38.0430,0.0625,0.4652,0.5433,-0.6691,0.0408,0.0372,-0.4679,-0.2651,0.4337,25.5000,-33.8400,-23.2200,10240.0000,0.0,0.0,0.0,
38.2900,0.0625,0.4652,0.5433,-0.6691,0.0408,0.0372,-0.4679,-0.2651,0.4337,25.6800,-33.7200,-23.2800,10240.0000,0.0,0.0,0.0,
38.2910,0.0625,0.4652,0.5433,-0.6691,0.0408,0.0372,0.5266,-0.1539,0.1979,25.6800,-33.7200,-23.2800,10240.0000,0.0,0.0,0.0,
38.2920,0.0625,0.4652,0.5433,-0.5284,-0.2846,0.3552,0.5266,-0.1539,0.1979,25.6800,-33.7200,-23.2800,10240.0000,0.0,0.0,0.0,
38.2930,0.0156,0.7622,0.7114,-0.5284,-0.2846,0.3552,0.5266,-0.1539,0.1979,25.6800,-33.7200,-23.2800,10240.0000,0.0,0.0,0.0,
38.2940,0.0156,0.7622,0.7114,-0.5284,-0.2846,0.3552,0.5266,-0.1539,0.1979,25.9200,-33.7800,-23.0400,10240.0000,0.0,0.0,0.0,
38.2970,0.0156,0.7622,0.7114,-0.5284,-0.2846,0.3552,0.5266,-0.1539,0.1979,25.9800,-34.0800,-22.6800,10240.0000,0.0,0.0,0.0,
38.3550,0.0156,0.7622,0.7114,-0.5284,-0.2846,0.3552,-0.1258,-0.3152,-0.1087,25.9800,-34.0800,-22.6800,10240.0000,0.0,0.0,0.0,
38.3560,0.0156,0.7622,0.7114,-0.8339,0.0524,0.0250,-0.1258,-0.3152,-0.1087,25.9800,-34.0800,-22.6800,10240.0000,0.0,0.0,0.0,
38.4250,-0.0195,0.4964,1.3838,-0.8339,0.0524,0.0250,-0.1258,-0.3152,-0.1087,25.9800,-34.0800,-22.6800,10240.0000,0.0,0.0,0.0,
38.4290,-0.0195,0.4964,1.3838,-0.8339,0.0524,0.0250,-0.1258,-0.3152,-0.1087,25.9200,-34.0200,-22.2000,10240.0000,0.0,0.0,0.0,
38.4950,-0.0195,0.4964,1.3838,-0.8339,0.0524,0.0250,-0.1258,-0.3152,-0.1087,26.2200,-33.7200,-22.0200,10240.0000,0.0,0.0,0.0,
38.5560,-0.0195,0.4964,1.3838,-0.8339,0.0524,0.0250,-0.7184,0.6316,-0.2541,26.2200,-33.7200,-22.0200,10240.0000,0.0,0.0,0.0,
38.5570,-0.0195,0.4964,1.3838,0.2637,-0.8578,0.4589,-0.7184,0.6316,-0.2541,26.2200,-33.7200,-22.0200,10240.0000,0.0,0.0,0.0,
38.6260,0.0704,0.4964,0.5355,0.2637,-0.8578,0.4589,-0.7184,0.6316,-0.2541,26.2200,-33.7200,-22.0200,10240.0000,0.0,0.0,0.0,
38.6280,0.0704,0.4964,0.5355,0.2637,-0.8578,0.4589,-0.7184,0.6316,-0.2541,26.4000,-33.4200,-22.0200,10240.0000,0.0,0.0,0.0,
38.6960,0.0704,0.4964,0.5355,0.2637,-0.8578,0.4589,-0.7184,0.6316,-0.2541,26.8200,-33.1200,-21.9600,10240.0000,0.0,0.0,0.0,
38.7600,0.0704,0.4964,0.5355,0.2637,-0.8578,0.4589,0.7734,0.1698,0.0305,26.8200,-33.1200,-21.9600,10240.0000,0.0,0.0,0.0,
38.7630,0.0704,0.4964,0.5355,1.0198,0.1829,-0.1616,0.7734,0.1698,0.0305,26.8200,-33.1200,-21.9600,10240.0000,0.0,0.0,0.0,
38.8310,0.0704,0.4964,0.5355,1.0198,0.1829,-0.1616,0.7734,0.1698,0.0305,27.3600,-33.0000,-21.5400,10240.0000,0.0,0.0,0.0,
38.8340,-0.0391,0.8170,0.6293,1.0198,0.1829,-0.1616,0.7734,0.1698,0.0305,27.3600,-33.0000,-21.5400,10240.0000,0.0,0.0,0.0,
38.8950,-0.0391,0.8170,0.6293,1.0198,0.1829,-0.1616,0.7734,0.1698,0.0305,27.8400,-33.0600,-21.3600,10240.0000,0.0,0.0,0.0,
38.9630,-0.0391,0.8170,0.6293,1.0198,0.1829,-0.1616,-0.3286,-0.0244,-0.0684,27.8400,-33.0600,-21.3600,10240.0000,0.0,0.0,0.0,
38.9680,-0.0391,0.8170,0.6293,-0.2129,0.2623,-0.2927,-0.3286,-0.0244,-0.0684,27.8400,-33.0600,-21.3600,10240.0000,0.0,0.0,0.0,
39.0390,-0.0391,0.8170,0.6293,-0.2129,0.2623,-0.2927,-0.3286,-0.0244,-0.0684,28.3200,-32.4600,-21.0600,10240.0000,0.0,0.0,0.0,
39.0420,-0.1290,0.7388,0.8365,-0.2129,0.2623,-0.2927,-0.3286,-0.0244,-0.0684,28.3200,-32.4600,-21.0600,10240.0000,0.0,0.0,0.0,
39.0940,-0.1290,0.7388,0.8365,-0.2129,0.2623,-0.2927,-0.3286,-0.0244,-0.0684,28.5600,-32.1600,-21.1800,10240.0000,0.0,0.0,0.0,
39.1600,-0.1290,0.7388,0.8365,-0.2129,0.2623,-0.2927,-0.0806,-0.1564,0.1552,28.5600,-32.1600,-21.1800,10240.0000,0.0,0.0,0.0,
39.1630,-0.1290,0.7388,0.8365,-0.7844,-0.5384,0.4749,-0.0806,-0.1564,0.1552,28.5600,-32.1600,-21.1800,10240.0000,0.0,0.0,0.0,
39.2300,-0.1290,0.7388,0.8365,-0.7844,-0.5384,0.4749,-0.0806,-0.1564,0.1552,28.8000,-32.0400,-21.3000,10240.0000,0.0,0.0,0.0,
39.2340,0.0352,0.4456,0.4769,-0.7844,-0.5384,0.4749,-0.0806,-0.1564,0.1552,28.8000,-32.0400,-21.3000,10240.0000,0.0,0.0,0.0,
39.2930,0.0352,0.4456,0.4769,-0.7844,-0.5384,0.4749,-0.0806,-0.1564,0.1552,28.6800,-32.2800,-21.1200,10240.0000,0.0,0.0,0.0,
39.3640,0.0352,0.4456,0.4769,-0.7844,-0.5384,0.4749,0.5388,0.0195,-0.0819,28.6800,-32.2800,-21.1200,10240.0000,0.0,0.0,0.0,
39.3690,0.0352,0.4456,0.4769,0.4454,-0.1819,0.2097,0.5388,0.0195,-0.0819,28.6800,-32.2800,-21.1200,10240.0000,0.0,0.0,0.0,
39.4370,0.0352,0.4456,0.4769,0.4454,-0.1819,0.2097,0.5388,0.0195,-0.0819,28.5600,-32.6400,-20.7600,10240.0000,0.0,0.0,0.0,
39.4410,-0.0274,0.8912,0.9186,0.4454,-0.1819,0.2097,0.5388,0.0195,-0.0819,28.5600,-32.6400,-20.7600,10240.0000,0.0,0.0,0.0,
39.4910,-0.0274,0.8912,0.9186,0.4454,-0.1819,0.2097,0.5388,0.0195,-0.0819,28.3800,-33.0000,-20.4600,10240.0000,0.0,0.0,0.0,
39.5590,-0.0274,0.8912,0.9186,0.4454,-0.1819,0.2097,-1.0715,-0.0379,-0.2456,28.3800,-33.0000,-20.4600,10240.0000,0.0,0.0,0.0,
39.5630,-0.0274,0.8912,0.9186,-0.1312,0.0340,0.0317,-1.0715,-0.0379,-0.2456,28.3800,-33.0000,-20.4600,10240.0000,0.0,0.0,0.0,
39.6290,-0.0274,0.8912,0.9186,-0.1312,0.0340,0.0317,-1.0715,-0.0379,-0.2456,28.1400,-33.0600,-20.4600,10240.0000,0.0,0.0,0.0,
39.6330,0.1173,0.6723,0.7427,-0.1312,0.0340,0.0317,-1.0715,-0.0379,-0.2456,28.1400,-33.0600,-20.4600,10240.0000,0.0,0.0,0.0,
39.6910,0.1173,0.6723,0.7427,-0.1312,0.0340,0.0317,-1.0715,-0.0379,-0.2456,27.9600,-32.7000,-20.8200,10240.0000,0.0,0.0,0.0,
39.7640,0.1173,0.6723,0.7427,-0.1312,0.0340,0.0317,0.6524,0.1808,-0.0257,27.9600,-32.7000,-20.8200,10240.0000,0.0,0.0,0.0,
39.7680,0.1173,0.6723,0.7427,0.8522,-0.0081,-0.0137,0.6524,0.1808,-0.0257,27.9600,-32.7000,-20.8200,10240.0000,0.0,0.0,0.0,
39.8390,0.1173,0.6723,0.7427,0.8522,-0.0081,-0.0137,0.6524,0.1808,-0.0257,27.7200,-32.5200,-21.3000,10240.0000,0.0,0.0,0.0,
39.8430,0.0156,0.5707,0.5003,0.8522,-0.0081,-0.0137,0.6524,0.1808,-0.0257,27.7200,-32.5200,-21.3000,10240.0000,0.0,0.0,0.0,
39.8980,0.0156,0.5707,0.5003,0.8522,-0.0081,-0.0137,0.6524,0.1808,-0.0257,27.8400,-32.2800,-21.2400,10240.0000,0.0,0.0,0.0,
39.9590,0.0156,0.5707,0.5003,0.8522,-0.0081,-0.0137,0.0391,-0.0709,-0.3323,27.8400,-32.2800,-21.2400,10240.0000,0.0,0.0,0.0,
39.9630,0.0156,0.5707,0.5003,0.0723,0.1830,-0.1326,0.0391,-0.0709,-0.3323,27.8400,-32.2800,-21.2400,10240.0000,0.0,0.0,0.0,
40.0220,0.0156,0.5707,0.5003,0.0723,0.1830,-0.1326,0.0391,-0.0709,-0.3323,27.9000,-32.4000,-21.0600,10240.0000,0.0,0.0,0.0,
40.0300,-0.1329,0.8131,0.8756,0.0723,0.1830,-0.1326,0.0391,-0.0709,-0.3323,27.9000,-32.4000,-21.0600,10240.0000,0.0,0.0,0.0,
40.3140,-0.1329,0.8131,0.8756,0.0723,0.1830,-0.1326,0.0391,-0.0709,-0.3323,28.0800,-32.2200,-20.7600,10240.0000,0.0,0.0,0.0,
40.3150,-0.1329,0.8131,0.8756,0.0723,0.1830,-0.1326,-0.5669,-0.1075,0.3384,28.0800,-32.2200,-20.7600,10240.0000,0.0,0.0,0.0,
40.3160,-0.1329,0.8131,0.8756,-0.8041,-0.0658,0.0693,-0.5669,-0.1075,0.3384,28.0800,-32.2200,-20.7600,10240.0000,0.0,0.0,0.0,
40.3170,-0.1329,0.8131,0.8756,-0.8041,-0.0658,0.0693,-0.5669,-0.1075,0.3384,28.2600,-31.9200,-20.8200,10240.0000,0.0,0.0,0.0,
40.3180,0.0039,0.5238,0.7896,-0.8041,-0.0658,0.0693,-0.5669,-0.1075,0.3384,28.2600,-31.9200,-20.8200,10240.0000,0.0,0.0,0.0,
40.3480,0.0039,0.5238,0.7896,-0.8041,-0.0658,0.0693,-0.5669,-0.1075,0.3384,28.3800,-31.8000,-20.9400,10240.0000,0.0,0.0,0.0,
40.3550,0.0039,0.5238,0.7896,-0.8041,-0.0658,0.0693,0.7660,0.2370,0.1576,28.3800,-31.8000,-20.9400,10240.0000,0.0,0.0,0.0,
40.3560,0.0039,0.5238,0.7896,0.0729,-0.1710,0.1658,0.7660,0.2370,0.1576,28.3800,-31.8000,-20.9400,10240.0000,0.0,0.0,0.0,
40.4150,0.0039,0.5238,0.7896,0.0729,-0.1710,0.1658,0.7660,0.2370,0.1576,28.3200,-31.8600,-20.8800,10240.0000,0.0,0.0,0.0,
40.4250,-0.0235,0.7075,0.6411,0.0729,-0.1710,0.1658,0.7660,0.2370,0.1576,28.3200,-31.8600,-20.8800,10240.0000,0.0,0.0,0.0,
40.5470,-0.0235,0.7075,0.6411,0.0729,-0.1710,0.1658,0.7660,0.2370,0.1576,28.2600,-32.5200,-20.2800,10240.0000,0.0,0.0,0.0,
40.5560,-0.0235,0.7075,0.6411,0.0729,-0.1710,0.1658,-0.1332,0.0024,0.2859,28.2600,-32.5200,-20.2800,10240.0000,0.0,0.0,0.0,
40.5570,-0.0235,0.7075,0.6411,-0.1627,0.5721,-0.5243,-0.1332,0.0024,0.2859,28.2600,-32.5200,-20.2800,10240.0000,0.0,0.0,0.0,
40.6180,-0.0235,0.7075,0.6411,-0.1627,0.5721,-0.5243,-0.1332,0.0024,0.2859,27.9600,-33.1200,-19.9800,10240.0000,0.0,0.0,0.0,
40.6330,0.1524,0.7466,1.1297,-0.1627,0.5721,-0.5243,-0.1332,0.0024,0.2859,27.9600,-33.1200,-19.9800,10240.0000,0.0,0.0,0.0,
40.7490,0.1524,0.7466,1.1297,-0.1627,0.5721,-0.5243,-0.1332,0.0024,0.2859,27.6000,-33.6600,-19.9800,10240.0000,0.0,0.0,0.0,
40.7580,0.1524,0.7466,1.1297,-0.1627,0.5721,-0.5243,-0.9566,0.3861,-0.3922,27.6000,-33.6600,-19.9800,10240.0000,0.0,0.0,0.0,
40.7620,0.1524,0.7466,1.1297,0.4883,-0.0335,0.0193,-0.9566,0.3861,-0.3922,27.6000,-33.6600,-19.9800,10240.0000,0.0,0.0,0.0,
40.8200,0.1524,0.7466,1.1297,0.4883,-0.0335,0.0193,-0.9566,0.3861,-0.3922,27.3000,-33.7200,-20.7000,10240.0000,0.0,0.0,0.0,
40.8300,0.0352,0.4964,0.4222,0.4883,-0.0335,0.0193,-0.9566,0.3861,-0.3922,27.3000,-33.7200,-20.7000,10240.0000,0.0,0.0,0.0,
40.9450,0.0352,0.4964,0.4222,0.4883,-0.0335,0.0193,-0.9566,0.3861,-0.3922,27.0000,-33.6600,-21.3600,10240.0000,0.0,0.0,0.0,
40.9580,0.0352,0.4964,0.4222,0.4883,-0.0335,0.0193,0.3971,-0.4655,-0.2688,27.0000,-33.6600,-21.3600,10240.0000,0.0,0.0,0.0,
40.9620,0.0352,0.4964,0.4222,-0.0081,0.6516,-0.6371,0.3971,-0.4655,-0.2688,27.0000,-33.6600,-21.3600,10240.0000,0.0,0.0,0.0,
41.0160,0.0352,0.4964,0.4222,-0.0081,0.6516,-0.6371,0.3971,-0.4655,-0.2688,26.5800,-33.9000,-21.7200,10240.0000,0.0,0.0,0.0,
41.0650,0.0235,0.8560,0.7153,-0.0081,0.6516,-0.6371,0.3971,-0.4655,-0.2688,26.5800,-33.9000,-21.7200,10240.0000,0.0,0.0,0.0,
41.1430,0.0235,0.8560,0.7153,-0.0081,0.6516,-0.6371,0.3971,-0.4655,-0.2688,26.4000,-33.7200,-22.0200,10240.0000,0.0,0.0,0.0,
41.1560,0.0235,0.8560,0.7153,-0.0081,0.6516,-0.6371,-0.3225,-0.2492,-0.1833,26.4000,-33.7200,-22.0200,10240.0000,0.0,0.0,0.0,
41.1570,0.0235,0.8560,0.7153,-0.2521,0.2145,-0.1826,-0.3225,-0.2492,-0.1833,26.4000,-33.7200,-22.0200,10240.0000,0.0,0.0,0.0,
41.2060,0.0235,0.8560,0.7153,-0.2521,0.2145,-0.1826,-0.3225,-0.2492,-0.1833,27.1200,-33.4800,-22.0800,10240.0000,0.0,0.0,0.0,
41.2250,-0.1173,0.7271,1.0945,-0.2521,0.2145,-0.1826,-0.3225,-0.2492,-0.1833,27.1200,-33.4800,-22.0800,10240.0000,0.0,0.0,0.0,
41.3400,-0.1173,0.7271,1.0945,-0.2521,0.2145,-0.1826,-0.3225,-0.2492,-0.1833,27.3000,-32.8800,-22.6200,10240.0000,0.0,0.0,0.0,
41.3570,-0.1173,0.7271,1.0945,-0.2521,0.2145,-0.1826,-0.6158,0.1894,0.0513,27.3000,-32.8800,-22.6200,10240.0000,0.0,0.0,0.0,
41.3600,-0.1173,0.7271,1.0945,-0.6752,-0.3391,0.2641,-0.6158,0.1894,0.0513,27.3000,-32.8800,-22.6200,10240.0000,0.0,0.0,0.0,
41.4030,-0.1173,0.7271,1.0945,-0.6752,-0.3391,0.2641,-0.6158,0.1894,0.0513,27.6600,-32.3400,-23.1600,10240.0000,0.0,0.0,0.0,
41.4260,0.0039,0.3479,0.5824,-0.6752,-0.3391,0.2641,-0.6158,0.1894,0.0513,27.6600,-32.3400,-23.1600,10240.0000,0.0,0.0,0.0,
41.5380,0.0039,0.3479,0.5824,-0.6752,-0.3391,0.2641,-0.6158,0.1894,0.0513,27.6000,-32.1000,-23.5800,10240.0000,0.0,0.0,0.0,
41.5580,0.0039,0.3479,0.5824,-0.6752,-0.3391,0.2641,0.1271,0.0269,-0.0538,27.6000,-32.1000,-23.5800,10240.0000,0.0,0.0,0.0,
41.5620,0.0039,0.3479,0.5824,0.3205,-0.2082,0.2088,0.1271,0.0269,-0.0538,27.6000,-32.1000,-23.5800,10240.0000,0.0,0.0,0.0,
41.6060,0.0039,0.3479,0.5824,0.3205,-0.2082,0.2088,0.1271,0.0269,-0.0538,27.6000,-32.1600,-23.1600,10240.0000,0.0,0.0,0.0,
41.6300,0.0430,0.7857,0.9694,0.3205,-0.2082,0.2088,0.1271,0.0269,-0.0538,27.6000,-32.1600,-23.1600,10240.0000,0.0,0.0,0.0,
41.7360,0.0430,0.7857,0.9694,0.3205,-0.2082,0.2088,0.1271,0.0269,-0.0538,27.5400,-32.5200,-22.9800,10240.0000,0.0,0.0,0.0,
41.7610,0.0430,0.7857,0.9694,0.3205,-0.2082,0.2088,-0.5962,0.3152,-0.0073,27.5400,-32.5200,-22.9800,10240.0000,0.0,0.0,0.0,
41.7650,0.0430,0.7857,0.9694,0.4571,0.2444,-0.1349,-0.5962,0.3152,-0.0073,27.5400,-32.5200,-22.9800,10240.0000,0.0,0.0,0.0,
41.8010,0.0430,0.7857,0.9694,0.4571,0.2444,-0.1349,-0.5962,0.3152,-0.0073,27.3000,-32.4600,-23.1000,10240.0000,0.0,0.0,0.0,
41.8290,0.2150,0.6958,0.7271,0.4571,0.2444,-0.1349,-0.5962,0.3152,-0.0073,27.3000,-32.4600,-23.1000,10240.0000,0.0,0.0,0.0,
41.9400,0.2150,0.6958,0.7271,0.4571,0.2444,-0.1349,-0.5962,0.3152,-0.0073,27.0000,-32.5800,-23.2200,10240.0000,0.0,0.0,0.0,
41.9580,0.2150,0.6958,0.7271,0.4571,0.2444,-0.1349,0.1283,0.0330,-0.1735,27.0000,-32.5800,-23.2200,10240.0000,0.0,0.0,0.0,
41.9620,0.2150,0.6958,0.7271,1.5001,0.4454,-0.5957,0.1283,0.0330,-0.1735,27.0000,-32.5800,-23.2200,10240.0000,0.0,0.0,0.0,
42.0000,0.2150,0.6958,0.7271,1.5001,0.4454,-0.5957,0.1283,0.0330,-0.1735,26.2200,-32.5800,-23.8800,10240.0000,0.0,0.0,0.0,
42.0300,0.0586,0.4573,0.4261,1.5001,0.4454,-0.5957,0.1283,0.0330,-0.1735,26.2200,-32.5800,-23.8800,10240.0000,0.0,0.0,0.0,
42.2980,0.0586,0.4573,0.4261,1.5001,0.4454,-0.5957,0.1283,0.0330,-0.1735,26.1000,-32.5800,-24.0600,10240.0000,0.0,0.0,0.0,
42.2990,0.0586,0.4573,0.4261,1.5001,0.4454,-0.5957,-0.6145,0.3128,-0.2688,26.1000,-32.5800,-24.0600,10240.0000,0.0,0.0,0.0,
42.3000,0.0586,0.4573,0.4261,0.2879,0.1716,-0.1561,-0.6145,0.3128,-0.2688,26.1000,-32.5800,-24.0600,10240.0000,0.0,0.0,0.0,
42.3010,0.0586,0.4573,0.4261,0.2879,0.1716,-0.1561,-0.6145,0.3128,-0.2688,26.1600,-32.5800,-24.1800,10240.0000,0.0,0.0,0.0,
42.3020,-0.0430,0.7779,1.0398,0.2879,0.1716,-0.1561,-0.6145,0.3128,-0.2688,26.1600,-32.5800,-24.1800,10240.0000,0.0,0.0,0.0,
42.3300,-0.0430,0.7779,1.0398,0.2879,0.1716,-0.1561,-0.6145,0.3128,-0.2688,26.5200,-32.2800,-24.1800,10240.0000,0.0,0.0,0.0,
42.3600,-0.0430,0.7779,1.0398,0.2879,0.1716,-0.1561,-0.3567,-0.0024,0.3934,26.5200,-32.2800,-24.1800,10240.0000,0.0,0.0,0.0,
42.3610,-0.0430,0.7779,1.0398,-0.5661,-0.1687,0.2113,-0.3567,-0.0024,0.3934,26.5200,-32.2800,-24.1800,10240.0000,0.0,0.0,0.0,
42.3950,-0.0430,0.7779,1.0398,-0.5661,-0.1687,0.2113,-0.3567,-0.0024,0.3934,26.5800,-31.6800,-24.6000,10240.0000,0.0,0.0,0.0,
42.4300,-0.0117,0.4222,0.8912,-0.5661,-0.1687,0.2113,-0.3567,-0.0024,0.3934,26.5800,-31.6800,-24.6000,10240.0000,0.0,0.0,0.0,
42.5300,-0.0117,0.4222,0.8912,-0.5661,-0.1687,0.2113,-0.3567,-0.0024,0.3934,26.8800,-30.9600,-25.2000,10240.0000,0.0,0.0,0.0,
42.5590,-0.0117,0.4222,0.8912,-0.5661,-0.1687,0.2113,0.1747,0.2676,-0.1491,26.8800,-30.9600,-25.2000,10240.0000,0.0,0.0,0.0,
42.5630,-0.0117,0.4222,0.8912,-0.2482,-0.9263,0.5947,0.1747,0.2676,-0.1491,26.8800,-30.9600,-25.2000,10240.0000,0.0,0.0,0.0,
42.5960,-0.0117,0.4222,0.8912,-0.2482,-0.9263,0.5947,0.1747,0.2676,-0.1491,27.1200,-30.1800,-25.5600,10240.0000,0.0,0.0,0.0,
42.6300,0.0000,0.4456,0.7192,-0.2482,-0.9263,0.5947,0.1747,0.2676,-0.1491,27.1200,-30.1800,-25.5600,10240.0000,0.0,0.0,0.0,
42.7310,0.0000,0.4456,0.7192,-0.2482,-0.9263,0.5947,0.1747,0.2676,-0.1491,27.8400,-29.6400,-25.7400,10240.0000,0.0,0.0,0.0,
42.7580,0.0000,0.4456,0.7192,-0.2482,-0.9263,0.5947,-0.4191,-0.0794,-0.2920,27.8400,-29.6400,-25.7400,10240.0000,0.0,0.0,0.0,
42.7620,0.0000,0.4456,0.7192,0.0709,0.0656,0.0503,-0.4191,-0.0794,-0.2920,27.8400,-29.6400,-25.7400,10240.0000,0.0,0.0,0.0,
42.7940,0.0000,0.4456,0.7192,0.0709,0.0656,0.0503,-0.4191,-0.0794,-0.2920,28.0800,-28.8600,-26.0400,10240.0000,0.0,0.0,0.0,
42.8390,0.0430,0.4104,1.3408,0.0709,0.0656,0.0503,-0.4191,-0.0794,-0.2920,28.0800,-28.8600,-26.0400,10240.0000,0.0,0.0,0.0,
42.9270,0.0430,0.4104,1.3408,0.0709,0.0656,0.0503,-0.4191,-0.0794,-0.2920,28.1400,-27.9000,-26.2800,10240.0000,0.0,0.0,0.0,
42.9600,0.0430,0.4104,1.3408,0.0709,0.0656,0.0503,-0.6377,-0.0696,-0.4300,28.1400,-27.9000,-26.2800,10240.0000,0.0,0.0,0.0,
42.9630,0.0430,0.4104,1.3408,0.0670,-0.2297,0.1492,-0.6377,-0.0696,-0.4300,28.1400,-27.9000,-26.2800,10240.0000,0.0,0.0,0.0,
42.9930,0.0430,0.4104,1.3408,0.0670,-0.2297,0.1492,-0.6377,-0.0696,-0.4300,27.9000,-27.1800,-26.8800,10240.0000,0.0,0.0,0.0,
43.0300,0.0195,0.3205,0.7701,0.0670,-0.2297,0.1492,-0.6377,-0.0696,-0.4300,27.9000,-27.1800,-26.8800,10240.0000,0.0,0.0,0.0,
43.1260,0.0195,0.3205,0.7701,0.0670,-0.2297,0.1492,-0.6377,-0.0696,-0.4300,27.8400,-26.2200,-27.3600,10240.0000,0.0,0.0,0.0,
43.1600,0.0195,0.3205,0.7701,0.0670,-0.2297,0.1492,0.3470,-0.1930,0.0464,27.8400,-26.2200,-27.3600,10240.0000,0.0,0.0,0.0,
43.1630,0.0195,0.3205,0.7701,-0.2194,0.2836,-0.0246,0.3470,-0.1930,0.0464,27.8400,-26.2200,-27.3600,10240.0000,0.0,0.0,0.0,
43.1900,0.0195,0.3205,0.7701,-0.2194,0.2836,-0.0246,0.3470,-0.1930,0.0464,28.1400,-25.6800,-27.3600,10240.0000,0.0,0.0,0.0,
43.2310,-0.0665,0.5785,0.7349,-0.2194,0.2836,-0.0246,0.3470,-0.1930,0.0464,28.1400,-25.6800,-27.3600,10240.0000,0.0,0.0,0.0,
43.3220,-0.0665,0.5785,0.7349,-0.2194,0.2836,-0.0246,0.3470,-0.1930,0.0464,28.5600,-25.1400,-27.3600,10240.0000,0.0,0.0,0.0,
43.3590,-0.0665,0.5785,0.7349,-0.2194,0.2836,-0.0246,-0.2859,0.1808,0.0232,28.5600,-25.1400,-27.3600,10240.0000,0.0,0.0,0.0,
43.3630,-0.0665,0.5785,0.7349,-0.7361,0.9294,-0.5904,-0.2859,0.1808,0.0232,28.5600,-25.1400,-27.3600,10240.0000,0.0,0.0,0.0,
43.4310,-0.2697,0.5824,1.1062,-0.7361,0.9294,-0.5904,-0.2859,0.1808,0.0232,28.5600,-25.1400,-27.3600,10240.0000,0.0,0.0,0.0,
43.4540,-0.2697,0.5824,1.1062,-0.7361,0.9294,-0.5904,-0.2859,0.1808,0.0232,29.2800,-24.7200,-26.9400,10240.0000,0.0,0.0,0.0,
43.5210,-0.2697,0.5824,1.1062,-0.7361,0.9294,-0.5904,-0.2859,0.1808,0.0232,29.6400,-24.0000,-26.8800,10240.0000,0.0,0.0,0.0,
43.5580,-0.2697,0.5824,1.1062,-0.7361,0.9294,-0.5904,-0.2834,1.2315,0.3543,29.6400,-24.0000,-26.8800,10240.0000,0.0,0.0,0.0,
43.5610,-0.2697,0.5824,1.1062,-0.3683,-0.1060,0.1026,-0.2834,1.2315,0.3543,29.6400,-24.0000,-26.8800,10240.0000,0.0,0.0,0.0,
43.6300,-0.0938,0.3401,0.5355,-0.3683,-0.1060,0.1026,-0.2834,1.2315,0.3543,29.6400,-24.0000,-26.8800,10240.0000,0.0,0.0,0.0,
43.6530,-0.0938,0.3401,0.5355,-0.3683,-0.1060,0.1026,-0.2834,1.2315,0.3543,30.0600,-23.7600,-26.6400,10240.0000,0.0,0.0,0.0,
43.7230,-0.0938,0.3401,0.5355,-0.3683,-0.1060,0.1026,-0.2834,1.2315,0.3543,30.3600,-23.8800,-26.5800,10240.0000,0.0,0.0,0.0,
43.7620,-0.0938,0.3401,0.5355,-0.3683,-0.1060,0.1026,0.5034,0.2834,-0.0134,30.3600,-23.8800,-26.5800,10240.0000,0.0,0.0,0.0,
43.7940,-0.0938,0.3401,0.5355,0.4180,0.0079,0.1848,0.5034,0.2834,-0.0134,30.3600,-23.8800,-26.5800,10240.0000,0.0,0.0,0.0,
43.8260,-0.0547,0.7192,0.9811,0.4180,0.0079,0.1848,0.5034,0.2834,-0.0134,30.3600,-23.8800,-26.5800,10240.0000,0.0,0.0,0.0,
43.8500,-0.0547,0.7192,0.9811,0.4180,0.0079,0.1848,0.5034,0.2834,-0.0134,30.7800,-24.1200,-26.1000,10240.0000,0.0,0.0,0.0,
43.9210,-0.0547,0.7192,0.9811,0.4180,0.0079,0.1848,0.5034,0.2834,-0.0134,30.9600,-25.0800,-25.6200,10240.0000,0.0,0.0,0.0,
43.9560,-0.0547,0.7192,0.9811,0.4180,0.0079,0.1848,0.2896,-0.1930,0.2236,30.9600,-25.0800,-25.6200,10240.0000,0.0,0.0,0.0,
43.9590,-0.0547,0.7192,0.9811,0.5872,-0.1174,0.2191,0.2896,-0.1930,0.2236,30.9600,-25.0800,-25.6200,10240.0000,0.0,0.0,0.0,
44.0260,0.0547,0.5238,1.0046,0.5872,-0.1174,0.2191,0.2896,-0.1930,0.2236,30.9600,-25.0800,-25.6200,10240.0000,0.0,0.0,0.0,
44.0550,0.0547,0.5238,1.0046,0.5872,-0.1174,0.2191,0.2896,-0.1930,0.2236,30.9600,-25.8000,-25.3800,10240.0000,0.0,0.0,0.0,
44.2500,0.0547,0.5238,1.0046,0.5872,-0.1174,0.2191,0.2896,-0.1930,0.2236,30.8400,-26.5800,-24.6600,10240.0000,0.0,0.0,0.0,
44.2510,0.0547,0.5238,1.0046,0.5872,-0.1174,0.2191,-0.0672,0.0086,-0.3201,30.8400,-26.5800,-24.6600,10240.0000,0.0,0.0,0.0,
44.2520,0.0547,0.5238,1.0046,0.7247,-0.9843,0.6532,-0.0672,0.0086,-0.3201,30.8400,-26.5800,-24.6600,10240.0000,0.0,0.0,0.0,
44.2530,0.0352,0.4495,0.4222,0.7247,-0.9843,0.6532,-0.0672,0.0086,-0.3201,30.8400,-26.5800,-24.6600,10240.0000,0.0,0.0,0.0,
44.2540,0.0352,0.4495,0.4222,0.7247,-0.9843,0.6532,-0.0672,0.0086,-0.3201,30.5400,-27.4200,-24.6000,10240.0000,0.0,0.0,0.0,
44.3150,0.0352,0.4495,0.4222,0.7247,-0.9843,0.6532,-0.0672,0.0086,-0.3201,30.4200,-28.5000,-24.0000,10240.0000,0.0,0.0,0.0,
44.3560,0.0352,0.4495,0.4222,0.7247,-0.9843,0.6532,0.0525,0.1820,-0.4019,30.4200,-28.5000,-24.0000,10240.0000,0.0,0.0,0.0,
44.3570,0.0352,0.4495,0.4222,0.5223,1.0161,-0.8917,0.0525,0.1820,-0.4019,30.4200,-28.5000,-24.0000,10240.0000,0.0,0.0,0.0,
44.4250,-0.0586,0.8678,0.8560,0.5223,1.0161,-0.8917,0.0525,0.1820,-0.4019,30.4200,-28.5000,-24.0000,10240.0000,0.0,0.0,0.0,
44.4440,-0.0586,0.8678,0.8560,0.5223,1.0161,-0.8917,0.0525,0.1820,-0.4019,30.2400,-29.2200,-23.5800,10240.0000,0.0,0.0,0.0,
44.5110,-0.0586,0.8678,0.8560,0.5223,1.0161,-0.8917,0.0525,0.1820,-0.4019,30.1200,-29.5800,-23.4000,10240.0000,0.0,0.0,0.0,
44.5610,-0.0586,0.8678,0.8560,0.5223,1.0161,-0.8917,0.1808,-0.0391,0.0819,30.1200,-29.5800,-23.4000,10240.0000,0.0,0.0,0.0,
44.5650,-0.0586,0.8678,0.8560,-0.2098,0.3704,-0.3038,0.1808,-0.0391,0.0819,30.1200,-29.5800,-23.4000,10240.0000,0.0,0.0,0.0,
44.6300,-0.0821,0.6215,0.9342,-0.2098,0.3704,-0.3038,0.1808,-0.0391,0.0819,30.1200,-29.5800,-23.4000,10240.0000,0.0,0.0,0.0,
44.6470,-0.0821,0.6215,0.9342,-0.2098,0.3704,-0.3038,0.1808,-0.0391,0.0819,29.9400,-29.5200,-23.4600,10240.0000,0.0,0.0,0.0,
44.7110,-0.0821,0.6215,0.9342,-0.2098,0.3704,-0.3038,0.1808,-0.0391,0.0819,29.7600,-28.8600,-23.8800,10240.0000,0.0,0.0,0.0,
44.7630,-0.0821,0.6215,0.9342,-0.2098,0.3704,-0.3038,0.0122,-0.1686,0.2627,29.7600,-28.8600,-23.8800,10240.0000,0.0,0.0,0.0,
